Folder: Tensile_force_data/shares/flx_lsms_hydrogen/EXPERIMENTAL_DATA/LABO_SOETE/WP1_TENSILE/AIR/MTS/HYA1

Note: README.md
# Tensile_force_data

File: specimen.dat
MTS793|MPT|ENU|1|2|.|/|:|1|0|0|A

Data Acquisition						Time:	15.0215	s	12/20/2021 1:28:43 PM
Time	ESH B Force	ESH B Displacement	Analog In 2	Analog In 1
s	kN	mm	V	V
0.03515625	0.0380992	-15	-0.00196035	-0.00916833
4.22461	0.040328	-14.9571	-0.002359343	-0.00894104
8.41406	0.124388	-14.9155	-0.00183373	-0.00902291
12.6035	0.262269	-14.8725	-0.000803562	-0.00811822
16.793	0.497919	-14.831	0.000244277	-0.0078121
20.9824	1.012543	-14.7912	0.00176935	-0.00505422
25.1719	1.79658	-14.7486	0.00512476	-0.00158666
29.3613	2.860384	-14.7078	0.00970977	0.0019085
33.5508	4.23787	-14.6648	0.015807	0.00729428
37.7402	5.78739	-14.6228	0.0229979	0.0138652
41.9297	7.51932	-14.5807	0.0307742	0.021
46.1191	9.37183	-14.5387	0.0395485	0.0282424
50.3086	11.2742	-14.4967	0.0500034	0.0379291
54.498	12.9467	-14.45471	0.0628935	0.05019854
58.6875	14.2521	-14.4128	0.0799467	0.0667639
62.877	14.9979	-14.37014	0.102461	0.08759
67.0664	15.4052	-14.3279	0.12802	0.110906
71.2559	15.5449	-14.2894	0.155802	0.13532
75.4453	15.7367	-14.247	0.1847014	0.159958
79.6348	15.8556	-14.20419	0.219435	0.1894027
83.8242	16.0214	-14.1616	0.245366	0.21145
88.0137	16.0263	-14.1217	0.276928	0.238283
92.2031	16.1891	-14.0786	0.308001	0.264614
96.3926	16.2435	-14.035	0.340638	0.2920157
100.582	16.36097	-13.9931	0.371147	0.318393
104.771	16.3883	-13.954	0.4007608	0.343557
108.961	16.43331	-13.9082	0.434399	0.372605
113.15	16.4966	-13.86834	0.464032	0.398321
117.34	16.549	-13.8258	0.495088	0.425404
121.5293	16.6241	-13.78554	0.523454	0.450074
125.719	16.7146	-13.7426	0.554731	0.476984
129.9082	16.6767	-13.7022	0.584255	0.50279
134.098	16.8073	-13.6625	0.612486	0.5273326
138.287	16.8506	-13.6175	0.645522	0.556187
142.477	16.9891	-13.5758	0.674526	0.581442
146.666	17.1151	-13.5326	0.705732	0.608528
150.855	17.1183	-13.4921	0.73592	0.635406
155.045	17.1333	-13.4491	0.76758	0.662643
159.234	17.2817	-13.4074	0.797557	0.689015
163.424	17.2748	-13.36738	0.826803	0.714609
167.613	17.29324	-13.3225	0.859901	0.743955
171.803	17.3582	-13.2822	0.889271	0.7766912
175.992	17.3496	-13.2405	0.919786	0.805413
180.182	17.3788	-13.1985	0.949777	0.831945
184.371	17.4432	-13.1576	0.979643	0.857535
188.561	17.4879	-13.1164	1.00989	0.88474
192.75	17.5893	-13.0748	1.03924	0.910376
196.939	17.6956	-13.03052	1.07113	0.938211
201.129	17.6599	-12.9895	1.10268	0.965477
205.318	17.6986	-12.9482	1.13325	0.992133
209.508	17.6998	-12.9046	1.16578	1.02005
213.697	17.772	-12.8632	1.196344	1.04672
217.887	17.8165	-12.81974	1.22768	1.07433
222.076	17.8605	-12.7798	1.25722	1.10009
226.266	17.8908	-12.7344	1.29055	1.12925
230.455	17.8362	-12.6967	1.3198	1.15446
234.645	17.9104	-12.6524	1.35013	1.182815
238.834	17.8675	-12.6151	1.37933	1.20778
243.023	17.9987	-12.5684	1.41205	1.23585
247.213	18.0323	-12.5285	1.44196	1.26175
251.402	18.0025	-12.4869	1.47427	1.28997
255.5918	18.0765	-12.4451	1.50479	1.316159
259.781	18.0873	-12.4028	1.53785	1.3451
263.9707	18.0872	-12.36095	1.56924	1.372233
268.16	18.0512	-12.3201	1.60036	1.398638
272.35	18.1265	-12.278	1.63182	1.42587
276.539	18.17557	-12.23511	1.66348	1.453122
280.729	18.1532	-12.1936	1.69548	1.48089
284.918	18.16276	-12.1496	1.72874	1.50954
289.107	18.0623	-12.1128	1.75737	1.53405
293.297	18.2573	-12.0674	1.789197	1.56153
297.486	18.28	-12.0277	1.822238	1.59
301.676	18.262	-11.9846	1.853761	1.61659
305.865	18.3251	-11.9415	1.88294	1.6442
310.055	18.3371	-11.8992	1.91594	1.67264
314.244	18.33111	-11.8579	1.94859	1.70022
318.434	18.3201	-11.81525	1.981221	1.72801
322.623	18.3632	-11.77295	2.0132	1.75556
326.8125	18.3483	-11.73171	2.04567	1.78308
331.002	18.3383	-11.6889	2.079165	1.811801
335.191	18.2999	-11.65021	2.10911	1.83761
339.381	18.3591	-11.6092	2.14023	1.86398
343.57	18.5008	-11.5646	2.173152	1.89226
347.76	18.4976	-11.52323	2.205899	1.92041
351.949	18.4698	-11.4812	2.23944	1.94862
356.139	18.4735	-11.43893	2.27184	1.97667
360.328	18.4537	-11.3963	2.30566	2.00515
364.518	18.443	-11.3548	2.33863	2.03333
368.707	18.4638	-11.3131	2.37187	2.06139
372.896	18.4681	-11.2699	2.40482	2.08959
377.086	18.4888	-11.22792	2.438062	2.11784
381.275	18.4564	-11.1871	2.47096	2.14587
385.465	18.4525	-11.1438	2.5041	2.174
389.6543	18.4381	-11.1044	2.53664	2.20163
393.844	18.4012	-11.0635	2.56895	2.22915
398.0332	18.4909	-11.0218	2.60117	2.2564
402.223	18.5343	-10.9799	2.63158	2.28474
406.412	18.5297	-10.9385	2.66578	2.3138
410.602	18.5868	-10.8934	2.70034	2.34343
414.791	18.5889	-10.8509	2.73339	2.371371
418.98	18.544	-10.8095	2.76804	2.40054
423.17	18.5444	-10.7682	2.80195	2.4294
427.359	18.5346	-10.7258	2.83618	2.459075
431.549	18.4469	-10.6841	2.87085	2.48833
435.738	18.532	-10.6416	2.90358	2.51572
439.928	18.5039	-10.6003	2.93702	2.54424
444.117	18.4253	-10.5611	2.96923	2.57203
448.307	18.4957	-10.51977	3.00116	2.60012
452.496	18.5651	-10.4769	3.03511	2.628828
456.686	18.5914	-10.4345	3.06924	2.65801
460.875	18.5811	-10.3913	3.10439	2.68845
465.064	18.5741	-10.3488	3.14021	2.71905
469.254	18.5399	-10.3074	3.17452	2.74834
473.443	18.5594	-10.2652	3.209053	2.77811
477.633	18.5736	-10.2228	3.24288	2.80785
481.822	18.56015	-10.18009	3.27866	2.83816
486.012	18.5343	-10.1397	3.31226	2.86698
490.201	18.5186	-10.0972	3.346653	2.89711
494.391	18.5254	-10.0567	3.3806	2.92691
498.58	18.4546	-10.0165	3.41394	2.95602
502.77	18.4357	-9.97494	3.448401	2.98592
506.959	18.5268	-9.92902	3.48561	3.01818
511.148	18.5488	-9.89006	3.51729	3.04621
515.338	18.4457	-9.849021	3.56743	3.09031
519.527	18.494	-9.81043	3.59303	3.11306
523.7168	18.558	-9.76216	3.62419	3.140794
527.906	18.5556	-9.72331	3.67159	3.18243
532.0957	18.538	-9.6787	3.69554	3.20346
536.285	18.3711	-9.640461	3.7385	3.24243
540.475	18.5789	-9.594142	3.76595	3.26715
544.664	18.3271	-9.55122	3.80697	3.3044
548.854	18.4535	-9.51184	3.84188	3.33633
553.043	18.5145	-9.47116	3.8814	3.37425
557.232	18.3638	-9.430069	3.91708	3.40708
561.422	18.5751	-9.39165	3.95176	3.43916
565.611	18.5081	-9.34495	3.98721	3.4721
569.801	18.52854	-9.30181	4.02378	3.50689
573.99	18.4783	-9.25978	4.06086	3.54217
578.18	18.4692	-9.21748	4.09713	3.57665
582.369	18.4884	-9.17602	4.13235	3.61127
586.559	18.4791	-9.13362	4.16817	3.64615
590.748	18.3767	-9.09859	4.20397	3.68182
594.9375	18.46088	-9.05031	4.24158	3.7195
599.127	18.3812	-9.00812	4.27781	3.75647
603.316	18.3725	-8.969161	4.31173	3.79065
607.506	18.4056	-8.92737	4.347363	3.82766
611.695	18.4392	-8.88484	4.384336	3.86641
615.885	18.4583	-8.84035	4.42278	3.90767
620.074	18.4093	-8.79888	4.45919	3.94769
624.264	18.3753	-8.757	4.49633	3.987951
628.453	18.3777	-8.71504	4.53451	4.02962
632.643	18.3773	-8.67235	4.57134	4.070694
636.832	18.3077	-8.6318	4.60892	4.11277
641.021	18.2388	-8.59235	4.64349	4.1522
645.211	18.2747	-8.5506	4.6814	4.195169
649.4	18.3272	-8.50807	4.71984	4.23888
653.59	18.331	-8.46401	4.76036	4.28426
657.7793	18.2686	-8.42231	4.80026	4.33007
661.969	18.2307	-8.3794	4.83573	4.37587
666.1582	18.2299	-8.33789	4.876133	4.42144
670.348	18.1806	-8.29562	4.91693	4.4673
674.537	18.1528	-8.25448	4.95828	4.51349
678.727	18.1012	-8.212903	4.99954	4.55938
682.916	18.0443	-8.17166	5.04143	4.60572
687.105	18.0578	-8.13044	5.08097	4.64913
691.295	18.0547	-8.08828	5.12329	4.69501
695.484	17.9911	-8.04669	5.16707	4.74236
699.674	17.9596	-8.00261	5.21216	4.79069
703.863	17.9259	-7.95969	5.25492	4.83887
708.053	17.7644	-7.91891	5.29973	4.88641
712.242	17.6207	-7.87765	5.34624	4.935463
716.432	17.7454	-7.83469	5.38982	4.98031
720.621	17.6259	-7.79106	5.43933	5.03116
724.811	17.6273	-7.7493	5.48602	5.07906
729	17.5677	-7.71159	5.5247	5.11816
733.189	17.4772	-7.66736	5.57376	5.16814
737.379	17.299	-7.6277	5.62004	5.2154
741.568	17.3278	-7.58643	5.66462	5.25986
745.758	17.3416	-7.544414	5.71406	5.30935
749.947	17.1894	-7.50161	5.761642	5.35654
754.137	17.1547	-7.45943	5.80767	5.4022
758.326	16.83091	-7.43618	5.83974	5.43436
762.516	16.7098	-7.43612	5.841774	5.43633
766.705	16.6665	-7.43567	5.84239	5.43666
770.895	16.6343	-7.43593	5.8428	5.43711
775.084	16.61862	-7.43551	5.84291	5.437665
779.273	16.5971	-7.43512	5.84292	5.4378
783.463	16.5742	-7.43589	5.83884	5.43751
787.652	16.45668	-7.43781	5.83148	5.43674
791.8418	16.3807	-7.43796	5.10382	5.43633
796.031	16.4317	-7.43757	2.552973	5.435533
800.2207	16.4368	-7.43681	-0.0690056	5.43541
804.41	16.4305	-7.43662	-0.164575	5.43569
808.6	16.4778	-7.43624	-0.157104	5.43596
812.789	16.696	-7.43232	-0.157169	5.43655
816.979	16.9455	-7.39141	-0.159423	5.47844
821.168	16.9511	-7.34868	-0.1580708	5.52589
825.357	16.8442	-7.30641	-0.158313	5.573535
829.547	16.6994	-7.26433	-0.1597072	5.62255
833.736	16.5041	-7.2239	-0.161226	5.66516
837.926	16.5615	-7.17982	-0.161822	5.70421
842.115	16.4708	-7.13856	-0.16265	5.75395
846.305	16.20751	-7.09434	-0.163004	5.8093
850.494	16.2745	-7.05573	-0.163305	5.84222
854.684	16.1387	-7.01388	-0.163548	5.89086
858.873	16.04491	-6.9728	-0.1636702	5.936059
863.0625	15.7388	-6.93051	-0.164365	5.98898
867.252	15.8266	-6.88855	-0.164676	6.03178
871.441	15.7448	-6.84683	-0.165214	6.07948
875.631	15.6102	-6.80375	-0.16492	6.12837
879.82	15.4703	-6.76151	-0.165181	6.17699
884.01	15.3313	-6.72094	-0.165127	6.22635
888.199	15.1544	-6.68249	-0.165155	6.28537
892.389	15.0369	-6.63599	-0.1655352	6.32239
896.578	14.8626	-6.59407	-0.165739	6.37445
900.768	14.7268	-6.55211	-0.1658	6.42367
904.957	14.5472	-6.51193	-0.16587	6.4761
909.146	14.3546	-6.4682	-0.165794	6.53623
913.336	14.1936	-6.42653	-0.166125	6.585114
917.525	14.0158	-6.384614	-0.166399	6.63303
921.715	13.8329	-6.34311	-0.16624	6.68215
925.9043	13.6463	-6.30161	-0.16654	6.73097
930.094	13.4464	-6.25944	-0.166483	6.78044
934.2832	13.2456	-6.21783	-0.166445	6.82913
938.473	13.0162	-6.17624	-0.166498	6.87846
942.662	12.8177	-6.13446	-0.166852	6.92693
946.852	12.6178	-6.09231	-0.1668	6.97707
951.041	12.3908	-6.05046	-0.166813	7.02656
955.23	12.1771	-6.00763	-0.167123	7.076611
959.42	11.9297	-5.966475	-0.16711	7.12718
963.609	11.689	-5.92435	-0.167052	7.17714
967.799	11.4093	-5.88258	-0.167153	7.228229
971.988	11.1368	-5.8396	-0.167486	7.27932
976.178	10.8268	-5.79817	-0.167439	7.331213
980.367	10.5059	-5.75662	-0.167481	7.38227
984.557	3.80089	-5.71492	-0.167212	7.45307
988.746	0.00058217	-5.67256	-0.167424	7.8684
992.936	0.000929029	-5.6309	-0.171935	7.29506
994.107	-0.0106364	-5.62417	-0.172549	7.30534