Folder: Tensile_force_data/shares/flx_lsms_hydrogen/EXPERIMENTAL_DATA/LABO_SOETE/WP1_TENSILE/AIR/MTS/HYARR1

Note: README.md
# Tensile_force_data

File: specimen.dat
MTS793|MPT|ENU|1|2|.|/|:|1|0|0|A

Data Acquisition						Time:	15.0205	s	12/17/2021 2:15:41 PM
Time	ESH B Force	ESH B Displacement	Analog In 2	Analog In 1
s	kN	mm	V	V
0.0332031	0.193679	2.28976	-0.00441024	-0.01230312
3.41699	0.2084495	2.2922	-0.00440986	-0.0125185
6.80078	0.244987	2.29468	-0.0044121	-0.0123791
10.18457	0.216038	2.29742	-0.00450225	-0.0125798
13.5684	0.236202	2.301362	-0.00438616	-0.0121152
16.9521	0.2714169	2.3058	-0.004436397	-0.0124578
20.3359	0.291392	2.30985	-0.00436948	-0.0122549
23.7197	0.28573	2.31369	-0.00445141	-0.012534
27.1035	0.313107	2.31698	-0.00444884	-0.0123663
30.4873	0.321363	2.31754	-0.00453974	-0.0126705
33.8711	0.3283	2.32218	-0.00446441	-0.0123548
37.2549	0.381149	2.32511	-0.00442254	-0.0119245
40.6387	0.410925	2.33054	-0.00449675	-0.0123181
44.0225	0.41727	2.33362	-0.00445569	-0.0121757
47.40625	0.417159	2.3382	-0.00442583	-0.0119682
50.79	0.411334	2.33866	-0.00449076	-0.0121876
54.1738	0.472304	2.34224	-0.00439805	-0.0118377
57.5576	0.473372	2.34898	-0.00450526	-0.0123072
60.9414	0.499881	2.35184	-0.00444691	-0.0120266
64.3252	0.528068	2.3572	-0.00449217	-0.0122841
67.709	0.507596	2.35624	-0.00438913	-0.0119034
71.0928	0.508469	2.35546	-0.00449192	-0.0121157
74.4766	0.571813	2.36089	-0.00439936	-0.01158
77.8604	0.616484	2.36733	-0.004521356	-0.0120056
81.2441	0.646938	2.370924	-0.004509802	-0.0117289
84.62793	0.699022	2.37418	-0.00449137	-0.0119422
88.0117	0.703228	2.37539	-0.00451332	-0.0118413
91.3955	0.763941	2.378314	-0.0044135	-0.0112268
94.7793	0.869602	2.38472	-0.00444418	-0.0115393
98.1631	0.922699	2.38856	-0.00450666	-0.0116697
101.547	0.977977	2.3916	-0.00444321	-0.0111998
104.931	0.8866052	2.39453	-0.004419	-0.0114631
108.314	0.93752	2.39562	-0.00448366	-0.0116364
111.698	1.13761	2.40114	-0.00443737	-0.0110427
115.082	1.26183	2.40615	-0.00447759	-0.0113571
118.466	1.24186	2.4067	-0.00435529	-0.0108852
121.85	1.31525	2.411	-0.00444215	-0.0108916
125.2334	1.33491	2.41428	-0.0043939	-0.0106643
128.617	1.42546	2.41611	-0.00449707	-0.0110149
132.001	1.62689	2.42169	-0.00448227	-0.0106109
135.385	1.71764	2.42533	-0.00443093	-0.0103416
138.769	1.84235	2.42588	-0.00447936	-0.0102978
142.152	1.8406	2.4311	-0.00443743	-0.0102381
145.536	1.85563	2.43274	-0.00443262	-0.0101043
148.92	1.95295	2.43678	-0.0044903	-0.0102169
152.304	2.16453	2.44233	-0.00443687	-0.00957337
155.6875	2.29979	2.44605	-0.00451284	-0.00951412
159.071	2.39313	2.44948	-0.00443382	-0.00920252
162.455	2.40678	2.45016	-0.004453606	-0.00935328
165.839	2.39798	2.45267	-0.00446542	-0.00911836
169.223	3.09007	2.45717	-0.00448679	-0.0083454
172.606	3.19924	2.46032	-0.00446635	-0.00778393
175.99	3.08939	2.4606	-0.0044661	-0.00856789
179.374	3.53121	2.46872	-0.00440449	-0.00750343
182.758	3.60338	2.46849	-0.004397043	-0.00698188
186.1416	3.66539	2.47756	-0.00448621	-0.00725824
189.525	3.90005	2.47966	-0.00448538	-0.00703068
192.909	4.06545	2.48507	-0.00439046	-0.00641234
196.293	3.86208	2.48068	-0.00440842	-0.0066875
199.677	3.87912	2.48899	-0.00446323	-0.0070804
203.061	4.39624	2.48966	-0.00450495	-0.006118976
206.444	4.31945	2.49392	-0.00442622	-0.0056901
209.828	4.75304	2.49691	-0.00440624	-0.00504504
213.212	4.6818	2.49867	-0.00441895	-0.00551722
216.5957	4.873086	2.50599	-0.0044868	-0.00498734
219.979	5.18488	2.51163	-0.00440248	-0.00428275
223.363	5.18586	2.51342	-0.00448342	-0.004504547
226.747	5.3785	2.513525	-0.00445857	-0.00420829
230.131	5.66652	2.52239	-0.004506839	-0.00339945
233.515	5.36409	2.524991	-0.00451858	-0.00433344
236.898	6.118567	2.52689	-0.004446724	-0.002689233
240.282	5.995584	2.527179	-0.00449751	-0.00293703
243.666	6.061183	2.53129	-0.00443327	-0.00269929
247.0498	6.174614	2.53513	-0.00449641	-0.00281592
250.434	6.26678	2.537302	-0.004407268	-0.0022666
253.817	6.24282	2.54314	-0.0044773	-0.00277869
257.201	6.29836	2.54861	-0.00448455	-0.00225507
260.585	6.70499	2.5546	-0.00444467	-0.0012717
263.969	7.34441	2.55208	-0.00446017	-0.000706138
267.353	7.56991	2.5589	-0.004463	-0.000192029
270.736	7.48049	2.56284	-0.00447902	-0.0004815463
274.12	7.2236	2.56176	-0.004517057	-0.0009757338
277.504	7.26809	2.564877	-0.0044253	-0.00056883
280.8877	7.247972	2.56824	-0.00447497	-0.000863119
284.271	7.5951	2.572021	-0.00439603	-0.000218214
287.655	7.79667	2.57799	-0.00442876	0.000157477
291.039	7.84548	2.58195	-0.00450317	0.000176089
294.423	8.05915	2.58424	-0.004409695	0.000863152
297.807	8.08661	2.58576	-0.00450372	0.000737005
301.19	8.20781	2.58961	-0.00443948	0.00100996
304.574	8.69215	2.59479	-0.00449053	0.00187678
307.958	8.81565	2.59674	-0.0045028	0.0017638
311.3418	8.975812	2.60107	-0.00441188	0.00278114
314.726	9.20134	2.60127	-0.00447327	0.00271753
318.109	9.33671	2.6056	-0.0044554	0.00329495
321.493	9.56711	2.61165	-0.00457177	0.00348732
324.877	9.73683	2.61557	-0.00446102	0.00409865
328.261	9.9455	2.61824	-0.00455856	0.00415766
331.645	10.0568	2.62149	-0.00444848	0.0048328
335.028	10.1354	2.62282	-0.00445409	0.00460056
338.412	10.4413	2.6279	-0.00445836	0.0054563
341.7959	10.75	2.63144	-0.004521654	0.00565781
345.18	10.8991	2.63363	-0.00449496	0.00621807
348.563	11.1355	2.63614	-0.00447732	0.00636528
351.947	11.2155	2.63977	-0.004441021	0.00668728
355.331	11.4006	2.64316	-0.00436802	0.00723122
358.715	11.7307	2.64855	-0.004502249	0.00787689
362.099	11.9758	2.65124	-0.00451876	0.00807528
365.482	12.1573	2.654763	-0.00442491	0.00878475
368.866	12.2264	2.65683	-0.0044575	0.00911718
372.25	12.3856	2.65961	-0.00450996	0.00903383
375.634	12.7383	2.66519	-0.00444191	0.00986206
379.018	13.0276	2.66865	-0.00451155	0.01026159
382.401	13.2507	2.671571	-0.0044259	0.0109606
385.785	13.3706	2.67401	-0.0044463	0.0110241
389.169	13.5521	2.67607	-0.004443476	0.0118483
392.553	14.12782	2.67604	-0.00445303	0.0126066
395.937	14.0644	2.68159	-0.00443293	0.0128821
399.32	14.5475	2.69176	-0.00454224	0.013265
402.7041	15.2394	2.69679	-0.00442192	0.0152794
406.088	14.8134	2.69472	-0.0044009	0.0140346
409.472	15.0805	2.6995	-0.0044299	0.0149203
412.855	15.9158	2.70448	-0.0044683	0.0162941
416.239	15.473	2.70802	-0.00441312	0.0157025
419.623	15.8401	2.70923	-0.00446626	0.0163573
423.007	16.0975	2.71586	-0.0043596	0.01712439
426.391	16.2461	2.7013	-0.00442253	0.0168376
429.774	16.3254	2.716573	-0.00440391	0.0176248
433.1582	16.502	2.7204	-0.00446554	0.01768025
436.542	16.7509	2.72198	-0.00440681	0.0183531
439.926	16.9074	2.72775	-0.004462474	0.0184334
443.31	17.142	2.73046	-0.00441164	0.01984188
446.693	17.5893	2.73858	-0.00441815	0.0203157
450.077	17.6684	2.74009	-0.00447522	0.0202781
453.461	17.7714	2.74294	-0.00441987	0.0210785
456.845	18.0632	2.747426	-0.00444731	0.0218388
460.229	18.2083	2.74952	-0.00452838	0.02198389
463.6123	19.2927	2.75109	-0.00444526	0.0249566
466.996	19.1354	2.75187	-0.00449638	0.02456088
470.38	19.3563	2.75413	-0.00445447	0.02517388
473.764	19.5613	2.759814	-0.00445761	0.0255341
477.147	19.9037	2.7656	-0.00441546	0.0268408
480.531	20.13088	2.76964	-0.00447094	0.0271153
483.915	20.4568	2.77492	-0.00439882	0.0285843
487.299	20.647	2.78178	-0.00452822	0.0290908
490.683	20.7355	2.78268	-0.00445239	0.0297293
494.066	20.8327	2.78402	-0.004517897	0.0297741
497.4502	21.1183	2.7883	-0.00442862	0.0310796
500.834	21.17802	2.78847	-0.004490233	0.03137615
504.218	21.4582	2.7972	-0.00439554	0.0328826
507.602	21.6892	2.7983	-0.00446903	0.0333864
510.985	21.8068	2.79748	-0.00441771	0.0345176
514.369	21.91633	2.79949	-0.00441962	0.0353982
517.753	21.9802	2.80588	-0.00441894	0.0359831
521.137	22.1019	2.81285	-0.00439113	0.0368416
524.521	22.2185	2.81468	-0.0044728	0.0370258
527.9043	22.2591	2.81498	-0.00441926	0.0379197
531.288	22.3711	2.81943	-0.0044485	0.0383462
534.672	22.5684	2.82306	-0.00443171	0.0394783
538.056	22.6564	2.82686	-0.00440541	0.0404663
541.439	22.8978	2.82941	-0.00445026	0.04172549
544.823	22.80298	2.83341	-0.00440796	0.0458681
548.207	23.6056	2.84082	-0.00446813	0.047537
551.591	23.92333	2.84269	-0.00441697	0.0524481
554.975	23.983	2.84526	-0.00445625	0.0537031
558.3584	24.0771	2.84368	-0.00440753	0.0548491
561.742	24.1836	2.84643	-0.00442939	0.0557088
565.126	24.42503	2.85403	-0.00439257	0.0583103
568.51	24.5485	2.85566	-0.004453165	0.0609816
571.894	24.5986	2.86385	-0.00439799	0.0624243
575.277	24.66	2.86318	-0.00440402	0.0635007
578.661	24.6807	2.86395	-0.00432961	0.0648703
582.045	24.9634	2.86912	-0.0044117	0.0669337
585.429	25.3995	2.87481	-0.00429464	0.0745134
588.8125	26.3493	2.909332	-0.00409442	0.104545
592.196	26.6734	2.93882	-0.00407466	0.1174
595.58	27.3039	2.96154	-0.00403961	0.143032
598.964	27.63711	2.99528	-0.00402136	0.167616
602.348	28.0366	3.01835	-0.00409501	0.1986146
605.731	28.2205	3.04305	-0.00410845	0.225166
609.115	28.3295	3.06958	-0.00412979	0.247719
612.499	28.5167	3.099987	-0.00404326	0.281374
615.883	28.2814	3.12846	-0.00404912	0.3085798
619.2666	28.449	3.15445	-0.00410438	0.341015
622.65	28.3711	3.17989	-0.00407609	0.372972
626.034	28.4103	3.2084	-0.00412765	0.402662
629.418	28.2021	3.23485	-0.00399008	0.438761
632.802	27.9779	3.264334	-0.00404539	0.471486
636.186	27.896	3.28953	-0.00398517	0.500308
639.569	27.7663	3.3136	-0.00409406	0.532877
642.953	27.4441	3.34335	-0.00407531	0.565764
646.337	27.1492	3.37044	-0.0041166	0.598738
649.7207	26.8791	3.39767	-0.00404129	0.632542
653.104	26.5502	3.42468	-0.00405335	0.66663
656.488	26.1158	3.44966	-0.00401572	0.70477
659.872	25.8624	3.47885	-0.00407035	0.736332
663.256	25.4677	3.5053	-0.004025213	0.77078
666.64	25.0526	3.53244	-0.004086839	0.807435
670.023	24.9096	3.55948	-0.004014723	0.8395558
673.407	24.3424	3.58624	-0.00405605	0.8779726
676.791	23.9112	3.61363	-0.00401108	0.910604
680.1748	23.2731	3.63934	-0.00411023	0.947754
683.559	23.0955	3.66759	-0.00403063	0.981168
686.942	22.656	3.695	-0.00403679	1.01687
690.326	22.2332	3.72001	-0.004004111	1.05298
693.71	14.1546	3.74882	-0.00402235	1.09805
697.094	15.876	3.77708	-0.003997182	1.1075
700.478	15.7542	3.80349	-0.00401744	1.13732
703.861	15.3679	3.83088	-0.00400221	1.17393
707.245	15.0349	3.857255	-0.00403534	1.20684
710.629	13.5526	3.88446	-0.00406613	1.25705
714.0127	12.1889	3.9113	-0.00401782	1.3048
717.396	10.8915	3.938169	-0.00403398	1.35226
720.78	9.53783	3.96559	-0.00409648	1.40094
722.934	0.012241	3.97932	-0.00407062	7.49865