Folder: Tensile_force_data/shares/flx_lsms_hydrogen/EXPERIMENTAL_DATA/LABO_SOETE/WP1_TENSILE/AIR/MTS/HYARR10

Note: README.md
# Tensile_force_data

File: specimen.dat
MTS793|MPT|ENU|1|2|.|/|:|1|0|0|A

Data Acquisition						Time:	15.0195	s	12/17/2021 3:14:02 PM
Time	ESH B Force	ESH B Displacement	Analog In 2	Analog In 1
s	kN	mm	V	V
0.0332031	0.0937271	0.999599	-0.0044465	-0.0113677
1.99609	0.0967147	1.00719	-0.00454902	-0.0118
3.95898	0.100104	1.01276	-0.0045035	-0.011469
5.921875	0.138438	1.01221	-0.00448767	-0.0117402
7.88477	0.157401	1.01732	-0.00441507	-0.0112571
9.84766	0.183795	1.02229	-0.00453218	-0.0116636
11.8105	0.190535	1.02631	-0.00445475	-0.0113547
13.7734	0.207488	1.02953	-0.00453765	-0.0118159
15.7363	0.22183	1.03419	-0.00446454	-0.0114549
17.6992	0.2189832	1.03893	-0.00450572	-0.0117644
19.6621	0.218577	1.04396	-0.00440251	-0.0113001
21.625	0.2516177	1.04714	-0.00444533	-0.0116124
23.5879	0.287786	1.05046	-0.00442704	-0.0113891
25.5508	0.2933408	1.05685	-0.00452387	-0.0117961
27.5137	0.302459	1.06043	-0.00444825	-0.01147419
29.4766	0.371206	1.07551	-0.00445055	-0.0117736
31.4395	0.405758	1.07036	-0.004397	-0.01127719
33.4023	0.43657	1.07527	-0.00446674	-0.0119552
35.3652	0.511366	1.07688	-0.00443875	-0.0116657
37.3281	0.5267908	1.08147	-0.004511239	-0.0117779
39.291	0.524822	1.08809	-0.00446415	-0.01154477
41.2539	0.584607	1.09241	-0.00453605	-0.0117369
43.2168	0.6711092	1.10105	-0.0044591	-0.0114154
45.1797	0.651514	1.10174	-0.00446021	-0.0115131
47.1426	0.782593	1.10632	-0.00446727	-0.0114508
49.1055	0.869269	1.11041	-0.00449738	-0.011313
51.0684	0.980663	1.11228	-0.00450782	-0.0113612
53.03125	0.992895	1.11886	-0.00449756	-0.0112821
54.9941	1.1141	1.12419	-0.004472	-0.0111665
56.957	1.19959	1.12743	-0.004462556	-0.0108796
58.9199	1.327888	1.13259	-0.00439596	-0.01078955
60.8828	1.42267	1.13657	-0.00447021	-0.0107557
62.8457	1.54808	1.14105	-0.00448218	-0.0105836
64.8086	1.63803	1.14603	-0.00450365	-0.0105819
66.7715	1.77892	1.14982	-0.00442772	-0.0100638
68.7344	1.88981	1.15396	-0.0044665	-0.0100912
70.6973	2.01848	1.15904	-0.00441668	-0.00988495
72.6602	2.14133	1.1632	-0.00446613	-0.00970458
74.623	2.30737	1.16846	-0.00446244	-0.00947486
76.5859	2.42925	1.17192	-0.004482518	-0.00939753
78.5488	2.59265	1.17695	-0.00447081	-0.00904588
80.5117	2.67073	1.18051	-0.00440505	-0.00851098
82.4746	2.88426	1.18576	-0.00443244	-0.00859536
84.4375	3.00302	1.1894	-0.00439643	-0.0079806
86.4004	3.21126	1.19404	-0.00443438	-0.00775318
88.3633	3.31965	1.19893	-0.00449169	-0.00776837
90.3262	3.51997	1.20305	-0.00445156	-0.00715759
92.2891	3.638185	1.20725	-0.00447556	-0.00745955
94.252	3.88007	1.21237	-0.00441837	-0.00666849
96.2148	3.9959	1.21639	-0.00442299	-0.0064816
98.1777	4.19401	1.22066	-0.00449183	-0.00611442
100.141	4.51999	1.228323	-0.00444153	-0.00524064
102.104	4.5611	1.22929	-0.00447609	-0.00547067
104.066	4.95614	1.23585	-0.00447736	-0.00497153
106.0293	4.91225	1.23818	-0.00446254	-0.00476358
107.992	5.24853	1.24362	-0.00448628	-0.004768
109.955	5.32527	1.2471	-0.00435825	-0.00423979
111.918	5.57435	1.25225	-0.0044331	-0.00491285
113.881	5.770659	1.255971	-0.00439877	-0.0046551
115.844	6.28567	1.26196	-0.00445712	-0.00434379
117.807	6.436861	1.2644	-0.00443758	-0.00421193
119.77	6.49785	1.26936	-0.00445482	-0.00427071
121.732	6.56098	1.27328	-0.00450469	-0.00427835
123.695	6.856	1.27851	-0.004493115	-0.003756338
125.6582	7.04249	1.28181	-0.00448695	-0.00359468
127.621	7.43237	1.28846	-0.0044605	-0.00279518
129.584	7.49036	1.29176	-0.004526766	-0.0031816
131.547	7.77186	1.295406	-0.004484788	-0.00242951
133.51	7.97629	1.29993	-0.00446704	-0.00216505
135.473	8.27351	1.30441	-0.00447436	-0.001745046
137.436	8.48075	1.3089	-0.0044245	-0.00150643
139.398	8.779808	1.313307	-0.00448957	-0.00117031
141.361	8.95039	1.31731	-0.004487	-0.0009495946
143.324	9.44733	1.32342	-0.00450229	-0.000110698
145.287	9.46551	1.32632	-0.00450419	1.03972e-05
147.25	9.76496	1.33116	-0.00449193	0.0005468938
149.213	10.0101	1.33553	-0.00442264	0.00131332
151.176	10.3184	1.34016	-0.00451205	0.00138514
153.139	10.5828	1.34496	-0.00450566	0.00236904
155.102	10.7716	1.34776	-0.00449991	0.00248218
157.064	11.0284	1.35285	-0.00444302	0.00322166
159.027	11.3317	1.3568	-0.00449437	0.0038096
160.99	11.6223	1.36225	-0.00443774	0.00472377
162.953	11.9315	1.36636	-0.00450708	0.00490772
164.916	12.2212	1.37267	-0.00448066	0.00581414
166.879	12.4982	1.374961	-0.00455545	0.00615909
168.8418	12.4583	1.3749	-0.00444212	0.00659417
170.805	12.5655	1.38506	-0.00453066	0.00663718
172.768	12.8345	1.38794	-0.00442804	0.00744696
174.73	13.0312	1.3945	-0.00452659	0.00733364
176.693	13.4028	1.39897	-0.00445518	0.008539848
178.656	13.5984	1.40205	-0.00448525	0.00884418
180.619	13.8435	1.40385	-0.00440575	0.00997823
182.582	14.0646	1.40956	-0.00447269	0.0102651
184.545	14.2012	1.41543	-0.00444384	0.0108612
186.508	14.5851	1.41749	-0.00445925	0.0115164
188.4707	15.0927	1.42465	-0.00452599	0.0127101
190.434	15.5093	1.42479	-0.00446732	0.0140682
192.396	15.5657	1.43244	-0.00454827	0.0140871
194.359	15.9781	1.44068	-0.00442391	0.0157725
196.322	15.9421	1.44095	-0.00444323	0.0155153
198.285	16.4546	1.43812	-0.0044454	0.0168074
200.248	16.4422	1.45067	-0.004398393	0.017279
202.211	16.5983	1.452718	-0.00447626	0.01747602
204.174	17.0085	1.4594	-0.00441229	0.0192892
206.137	17.24464	1.45962	-0.00449126	0.0202238
208.1	17.5926	1.46806	-0.00442827	0.0217568
210.0625	17.79948	1.4674	-0.00442901	0.0235277
212.025	18.1735	1.47708	-0.00441439	0.0257057
213.988	18.3906	1.48353	-0.00439065	0.0288503
215.951	18.45332	1.48646	-0.004495678	0.0296299
217.914	18.6942	1.48788	-0.00446207	0.0320283
219.877	18.9011	1.49217	-0.00443013	0.0366903
221.84	18.7153	1.49623	-0.00436451	0.0381832
223.803	19.4626	1.5063	-0.00439454	0.0394268
225.766	19.4991	1.50677	-0.0044445	0.0391731
227.729	19.4577	1.50988	-0.00439904	0.0397922
229.691	19.4363	1.51572	-0.00440017	0.0397473
231.6543	19.6805	1.51997	-0.004474679	0.039716
233.617	19.5939	1.52595	-0.00443253	0.040005
235.58	19.7348	1.53028	-0.00447768	0.0399252
237.543	19.6844	1.53346	-0.00448206	0.0396584
239.506	20.0066	1.53856	-0.004380214	0.0401805
241.469	20.0298	1.54268	-0.00447575	0.0398563
243.432	20.1757	1.54765	-0.00439573	0.0402641
245.395	20.2326	1.55256	-0.00438078	0.0401613
247.357	20.3347	1.55652	-0.00446435	0.03965722
249.32	20.37393	1.56097	-0.00445238	0.0399616
251.2832	20.4989	1.56508	-0.00446496	0.04001848
253.246	20.5276	1.56963	-0.00442127	0.0404253
255.209	20.5998	1.57338	-0.00441871	0.0399038
257.172	20.6858	1.57907	-0.00441196	0.0391491
259.135	20.6966	1.58162	-0.004406237	0.0393177
270.692	20.6972	1.58599	-0.00442355	-0.0245689
272.655	20.9125	1.59095	-0.0043754	-0.0216069
274.618	20.89221	1.59425	-0.00448315	-0.0182033
276.581	21.1849	1.59921	-0.00442643	-0.0113072
278.544	20.9087	1.60306	-0.00438783	-0.00660919
280.507	21.1632	1.60887	-0.00447685	-0.001468534
282.47	21.2301	1.61164	-0.00442664	0.00290883
284.433	21.2255	1.61826	-0.00445774	0.00602214
286.396	21.1837	1.62059	-0.00442192	0.0102983
288.3584	21.3186	1.62817	-0.004402501	0.0154028
290.321	21.2072	1.62858	-0.004533737	0.0173916
292.284	21.42033	1.63521	-0.00441976	0.020997
294.247	21.337	1.63846	-0.00445653	0.0251775
296.21	21.4871	1.64347	-0.00442179	0.0287942
298.173	21.4886	1.64774	-0.00438386	0.0327602
300.136	21.5986	1.65189	-0.0044149	0.03708
302.099	21.5618	1.65598	-0.00436732	0.0419024
304.062	21.5958	1.66035	-0.00449509	0.0463912
306.024	21.5904	1.66524	-0.00441917	0.0518451
307.9873	21.7486	1.66743	-0.00452217	0.0569961
309.9502	21.64072	1.673856	-0.00441474	0.0605266
311.913	21.8217	1.67898	-0.00451116	0.0638631
313.876	21.7903	1.68386	-0.004452704	0.0690966
315.839	21.8879	1.68765	-0.00450593	0.0726657
317.802	21.864	1.69233	-0.00446555	0.078394
319.765	21.9716	1.69579	-0.00451368	0.0822069
321.728	21.9455	1.70125	-0.00442651	0.0876881
323.69	22.04343	1.70541	-0.00442517	0.0918053
325.653	22.0312	1.71067	-0.00430436	0.0987106
327.616	22.1737	1.73717	-0.0041305	0.133959
329.5791	22.5754	1.77298	-0.00400863	0.168106
331.542	22.8103	1.80887	-0.00416531	0.206122
333.505	22.7349	1.84507	-0.00404701	0.247441
335.468	22.90983	1.8805	-0.00408339	0.286236
337.431	22.9375	1.91498	-0.00409665	0.325171
339.394	22.69948	1.94883	-0.00401742	0.365641
341.356	22.8033	1.98486	-0.00409143	0.405694
343.319	22.9583	2.01988	-0.00410232	0.44401
345.282	22.6929	2.05601	-0.00408092	0.485131
347.245	22.6716	2.0921	-0.0041535	0.5263201
349.208	22.6472	2.12416	-0.0040446	0.565855
351.1709	22.5729	2.16203	-0.00409014	0.6049962
353.134	22.2916	2.197108	-0.00404667	0.6502856
355.097	22.2382	2.231539	-0.00409699	0.690074
357.06	22.0265	2.2679	-0.00412129	0.731916
359.022	21.8483	2.30194	-0.00415481	0.771194
360.985	21.923	2.33834	-0.0041104	0.816447
362.948	21.7343	2.3728	-0.00413193	0.856665
364.911	21.5629	2.41054	-0.00406644	0.898985
366.874	21.1561	2.44222	-0.004128817	0.938876
368.837	21.2237	2.48005	-0.0040907	0.978762
370.7998	21.1454	2.516217	-0.00413056	1.02188
372.7627	20.7921	2.55159	-0.00410678	1.06523
374.726	20.61388	2.58292	-0.0040526	1.10739
376.688	20.1473	2.62195	-0.00404584	1.15021
378.651	20.1955	2.65513	-0.004100943	1.17671
380.614	19.8808	2.69143	-0.004124756	1.23507
382.577	20.0485	2.72589	-0.00414053	1.26238
384.54	19.4506	2.75439	-0.0041119	1.313113
386.503	19.4402	2.797461	-0.00406419	1.34416
388.466	18.9801	2.83321	-0.00410756	1.39053
390.429	18.9636	2.867219	-0.00405736	1.42943
392.3916	18.6367	2.9031	-0.00412247	1.48637
394.354	18.3314	2.93872	-0.00409659	1.51619
396.317	18.1329	2.97206	-0.00413144	1.565026
398.28	17.9528	3.00631	-0.00416183	1.6082
400.243	17.6937	3.04383	-0.004050049	1.65753
402.206	17.1983	3.07776	-0.00412017	1.691547
404.169	17.1175	3.11279	-0.00402076	1.7418
406.132	17.2009	3.14481	-0.0041547	1.769426
408.095	16.6628	3.18558	-0.0041163	1.81859
410.058	16.368	3.217905	-0.00413865	1.87213
412.021	15.9479	3.25857	-0.00406879	1.906078
413.9834	15.5526	3.29313	-0.00411903	1.95764
415.946	15.4972	3.32563	-0.00405697	1.9995
417.909	14.8741	3.36492	-0.0041909	2.04221
419.872	11.227	3.396297	-0.00411556	2.11218
421.835	11.8314	3.43028	-0.00416103	2.13475
423.798	11.7239	3.46095	-0.00403574	2.1746
425.761	11.4903	3.5043	-0.00414676	2.22462
427.724	11.2012	3.53742	-0.00402542	2.25933
429.687	9.61055	3.58293	-0.00408763	2.32263
430.785	0.0196216	3.58532	-0.00396318	4.0594