Folder: Tensile_force_data/shares/flx_lsms_hydrogen/EXPERIMENTAL_DATA/LABO_SOETE/WP1_TENSILE/AIR/MTS/LYA1

Note: README.md
# Tensile_force_data

File: specimen.dat
MTS793|MPT|ENU|1|2|.|/|:|1|0|0|A

Data Acquisition						Time:	15.0195	s	12/20/2021 2:09:56 PM
Time	ESH B Force	ESH B Displacement	Analog In 2	Analog In 1
s	kN	mm	V	V
0.0332031	0.125202	-15.0032	-0.00415193	-0.0117864
2.97754	0.297891	-14.9696	-0.003492	-0.0112145
5.921875	0.454284	-14.9409	-0.00279742	-0.00992416
8.86621	0.718334	-14.91127	-0.00190423	-0.00943323
11.8105	1.11342	-14.8836	-0.00077173	-0.00750518
14.7549	1.77868	-14.851	0.00196338	-0.00421271
17.6992	2.54325	-14.8215	0.005227528	-0.00164862
20.6436	3.399302	-14.7925	0.00915085	0.00135262
23.5879	4.24548	-14.7654	0.0132796	0.00492677
26.5322	5.23679	-14.7359	0.0180978	0.00895898
29.4766	6.44901	-14.7047	0.0239296	0.0136584
32.4209	7.66733	-14.675	0.0299967	0.01960784
35.3652	8.96744	-14.6468	0.0364925	0.02506138
38.30957	10.8066	-14.6132	0.0461978	0.0330905
41.2539	11.6569	-14.5884	0.0508123	0.0377047
44.1982	12.9507	-14.5583	0.0577813	0.04420872
47.1426	14.2328	-14.5283	0.0657486	0.0518886
50.0869	15.0243	-14.5003	0.0739651	0.0621024
53.03125	15.4512	-14.46954	0.0856135	0.08131548
55.9756	15.589	-14.4391	0.0962351	0.104567
58.9199	15.6307	-14.41013	0.108479	0.130568
61.8643	15.6668	-14.3825	0.121892	0.155598
64.8086	15.6048	-14.3534	0.14016	0.182234
67.75293	15.7345	-14.3217	0.160957	0.206625
70.6973	15.8246	-14.2896	0.184203	0.22946
73.6416	15.8026	-14.2645	0.20404	0.245898
76.5859	15.8026	-14.2364	0.22817	0.2630887
79.5303	15.8606	-14.2047	0.255579	0.284044
82.4746	15.9096	-14.1745	0.280457	0.3017427
85.4189	15.9818	-14.1452	0.303523	0.316565
88.3633	15.9579	-14.1171	0.3287	0.334025
91.3076	16.0157	-14.0881	0.3485207	0.349607
94.252	16.1273	-14.0557	0.370452	0.367379
97.1963	16.1763	-14.0271	0.390273	0.385058
100.141	16.2095	-13.9999	0.409771	0.402625
103.085	16.2066	-13.9691	0.431824	0.423131
106.0293	16.2645	-13.94113	0.452493	0.442401
108.974	16.3322	-13.91069	0.472699	0.461211
111.918	16.34833	-13.8822	0.491542	0.478885
114.8623	16.3269	-13.8523	0.512604	0.498731
117.807	16.6634	-13.82175	0.538216	0.523244
120.751	16.3186	-13.7918	0.562133	0.546386
123.695	16.52	-13.7642	0.572153	0.555795
126.64	16.4666	-13.7346	0.593547	0.575758
129.584	16.6394	-13.7033	0.614275	0.5957166
132.528	16.6565	-13.6752	0.6340813	0.61456
135.473	16.7094	-13.6464	0.653057	0.633199
138.417	16.6502	-13.61778	0.674442	0.6542781
141.361	16.75098	-13.5859	0.69524	0.674086
144.306	16.6205	-13.5574	0.716187	0.693914
147.25	16.847	-13.5269	0.735173	0.712816
150.194	16.847	-13.5	0.754503	0.73171
153.139	16.8265	-13.4686	0.775434	0.752619
156.083	16.9127	-13.4394	0.79582	0.772289
159.027	16.9346	-13.4089	0.815659	0.7917788
161.972	16.91551	-13.3824	0.833697	0.8100841
164.916	16.9123	-13.3516	0.855247	0.830834
167.86	17.0158	-13.3204	0.876033	0.851598
170.805	17.0432	-13.2918	0.895846	0.871719
173.749	17.0751	-13.2645	0.914093	0.890288
176.693	16.9738	-13.2342	0.935267	0.911049
179.6377	17.139	-13.2024	0.959927	0.935534
182.582	16.9891	-13.1732	0.978519	0.954633
185.526	17.1374	-13.1455	0.9944343	0.9714821
188.4707	17.0604	-13.1178	1.01454	0.990969
191.415	17.1618	-13.0856	1.0358	1.0131
194.359	17.186	-13.05627	1.0556	1.03338
197.304	17.178	-13.0276	1.07469	1.05347
200.248	17.0549	-12.9991	1.09573	1.07485
203.192	17.25185	-12.9662	1.1158	1.09578
206.137	17.273	-12.93891	1.13543	1.11643
209.081	17.34074	-12.906	1.16002	1.14201
212.025	17.24197	-12.8814	1.17527	1.15808
214.97	17.213	-12.8512	1.19463	1.178835
217.914	17.2856	-12.821	1.21411	1.19943
220.8584	17.3269	-12.7905	1.23319	1.21989
223.803	17.3529	-12.764	1.25251	1.24026
226.747	17.2686	-12.7335	1.27236	1.262154
229.691	17.3547	-12.7019	1.29272	1.28347
232.636	17.3631	-12.6729	1.31218	1.30473
235.58	17.3031	-12.6452	1.33637	1.33124
238.524	17.23877	-12.6182	1.36149	1.35921
241.469	17.3347	-12.58453	1.38545	1.38544
244.413	17.19545	-12.5552	1.39427	1.3956
247.357	17.4256	-12.5273	1.40754	1.41013
250.302	17.2997	-12.4992	1.431554	1.436627
253.246	17.4216	-12.46606	1.44836	1.45599
256.19	17.4872	-12.4384	1.47064	1.48144
259.135	17.4099	-12.409	1.49633	1.51119
262.0791	17.2752	-12.3892	1.51383	1.53149
265.023	17.4375	-12.3491	1.5289	1.54857
267.968	17.4149	-12.3194	1.55497	1.579046
270.912	17.4335	-12.2905	1.573132	1.60044
273.856	17.3828	-12.26332	1.58998	1.62085
276.801	17.4538	-12.2318	1.60889	1.64346
279.745	17.4958	-12.2064	1.62785	1.66617
282.689	17.4056	-12.1738	1.6483	1.69195
285.634	17.3241	-12.1467	1.66594	1.71388
288.578	17.3794	-12.11401	1.68517	1.73794
291.522	17.4655	-12.0846	1.70339	1.76077
294.4668	17.4676	-12.0549	1.72097	1.78335
297.411	17.518	-12.027	1.73686	1.80465
300.355	17.4291	-11.9972	1.756102	1.83042
303.2998	17.4773	-11.9666	1.77419	1.85511
306.244	17.4819	-11.93715	1.79125	1.87856
309.188	17.5014	-11.9095	1.80668	1.90061
312.133	17.4196	-11.8791	1.825025	1.92744
315.077	17.4869	-11.84853	1.84244	1.95237
318.021	17.4931	-11.8186	1.85848	1.97581
320.966	17.5251	-11.7918	1.87319	1.99888
323.91	17.4387	-11.7614	1.89097	2.02599
326.854	17.46973	-11.7305	1.90721	2.05155
329.799	17.478	-11.7011	1.92266	2.07643
332.743	17.5162	-11.6733	1.936674	2.09984
335.6875	17.412	-11.6435	1.95293	2.12758
338.632	17.4825	-11.6124	1.96867	2.15476
341.576	17.4707	-11.5843	1.98276	2.18009
344.521	17.4628	-11.5557	1.99645	2.20497
347.465	17.1974	-11.5269	2.01079	2.23324
350.409	17.3651	-11.4969	2.026068	2.26241
353.354	17.5206	-11.4649	2.03896	2.28761
356.298	17.4791	-11.4372	2.05117	2.31339
359.242	17.4864	-11.4088	2.06274	2.33949
362.187	17.3692	-11.378	2.07528	2.37023
365.131	17.4354	-11.3484	2.080682	2.39812
368.0752	17.4358	-11.3185	2.09127	2.426399
371.02	17.5163	-11.2896	2.09841	2.452528
373.964	17.3241	-11.2606	2.109818	2.48517
376.9082	17.4168	-11.2302	2.11974	2.51336
379.853	17.41053	-11.2007	2.12902	2.54191
382.797	17.4151	-11.1732	2.136898	2.56923
385.741	17.3728	-11.1423	2.14641	2.602278
388.686	17.37686	-11.1124	2.15394	2.63276
391.63	17.4058	-11.0835	2.1609	2.66115
394.574	17.353	-11.0559	2.1665	2.69053
397.519	17.30385	-11.0246	2.17216	2.7237
400.463	17.3221	-10.9954	2.17776	2.75545
403.407	17.328	-10.9658	2.18294	2.785002
406.352	17.2771	-10.93788	2.18696	2.815099
409.2959	17.2718	-10.9065	2.1915	2.848717
412.24	17.2871	-10.8768	2.19549	2.88031
415.185	17.2807	-10.8479	2.19863	2.91116
418.129	17.1768	-10.8205	2.20035	2.94179
421.073	17.2012	-10.7886	2.20351	2.97656
424.018	17.1759	-10.7578	2.20517	3.00984
426.962	17.1998	-10.7305	2.20707	3.03855
429.906	17.2426	-10.701	2.20865	3.07103
432.851	17.1235	-10.6711	2.20981	3.10559
435.795	17.1091	-10.6421	2.2109	3.13763
438.739	17.1015	-10.6131	2.21158	3.16613
441.684	17.0448	-10.5853	2.21199	3.198643
444.628	16.932	-10.5498	2.21226	3.22521
447.572	16.9264	-10.53223	2.213227	3.26513
450.5166	16.5361	-10.5293	2.21114	3.26734
453.461	16.3674	-10.5318	2.21013	3.26668
456.405	16.452	-10.5284	2.21076	3.2675
459.35	16.4183	-10.5293	2.21022	3.26768
462.294	16.3829	-10.5302	2.21007	3.267446
465.238	16.2859	-10.5303	2.20629	3.26705
468.183	16.3929	-10.5292	1.64675	3.26782
471.127	16.3348	-10.5306	1.73765	3.26716
474.071	16.28371	-10.5302	0.947494	3.26741
477.016	16.2334	-10.5306	0.947756	3.26697
479.96	16.3797	-10.529	0.948151	3.26792
482.9043	16.7682	-10.523	0.94848	3.26981
485.849	17.0477	-10.4935	0.949101	3.2943
488.793	16.9036	-10.4658	0.949372	3.32779
491.7373	16.7666	-10.42982	0.94984	3.35242
494.682	16.7813	-10.4057	0.950047	3.39626
497.626	16.8627	-10.3745	0.9501254	3.42957
500.57	16.8253	-10.348	0.949981	3.46032
503.515	16.8066	-10.31823	0.9503516	3.49214
506.459	16.7311	-10.2898	0.950534	3.52798
509.403	16.6495	-10.2587	0.950597	3.559267
512.348	16.6619	-10.2316	0.950557	3.58976
515.292	16.487	-10.2013	0.950883	3.62787
518.236	16.5685	-10.17	0.951144	3.65796
521.181	16.4899	-10.1415	0.951187	3.69257
524.125	16.463	-10.1111	0.951139	3.72481
527.069	16.4153	-10.0832	0.951594	3.75789
530.014	16.1624	-10.0533	0.951472	3.79396
532.958	16.3292	-10.0231	0.9515754	3.8229
535.902	16.2729	-9.99372	0.951516	3.85683
538.847	16.2896	-9.9629	0.951715	3.89025
541.791	16.1256	-9.9346	0.9517982	3.92418
544.735	16.2284	-9.90277	0.952008	3.95523
547.68	16.0461	-9.87582	0.952119	3.98969
550.624	15.9996	-9.8466	0.952089	4.022665
553.568	15.9313	-9.81696	0.952144	4.05527
556.5127	15.8435	-9.78768	0.952377	4.08909
559.457	15.8196	-9.75795	0.952412	4.122983
562.401	15.7427	-9.72897	0.952348	4.155798
565.3457	15.6834	-9.69905	0.952384	4.18842
568.29	15.5732	-9.670166	0.952676	4.22328
571.234	15.54618	-9.64094	0.952741	4.25679
574.179	15.4844	-9.60528	0.952669	4.28749
577.123	15.4136	-9.58191	0.952735	4.32225
580.067	15.3062	-9.55207	0.952629	4.35605
583.012	15.23793	-9.5229	0.952747	4.38998
585.956	15.1617	-9.49372	0.952692	4.42244
588.9	15.08121	-9.46416	0.953067	4.45553
591.845	15.0239	-9.43437	0.952941	4.49039
594.789	14.9421	-9.40521	0.953031	4.52303
597.7334	14.885	-9.3754	0.952947	4.555984
600.678	14.6708	-9.34706	0.9533847	4.591001
603.622	14.6722	-9.31654	0.953356	4.6249
606.566	14.57889	-9.28774	0.953445	4.65789
609.511	14.5082	-9.25716	0.953463	4.69128
612.455	14.3858	-9.22883	0.953366	4.725358
615.399	14.3059	-9.19883	0.953371	4.759728
618.344	14.2078	-9.16975	0.953314	4.79212
621.288	14.1154	-9.14017	0.953689	4.826179
624.232	13.9664	-9.10981	0.953676	4.86178
627.177	13.8928	-9.08078	0.953747	4.89508
630.121	13.7887	-9.05142	0.953637	4.92807
633.065	13.6808	-9.02219	0.953714	4.96171
636.01	13.55	-8.99314	0.953653	4.99612
638.9541	13.4247	-8.96326	0.95402	5.03111
641.898	13.3033	-8.93396	0.953914	5.06365
644.843	13.14328	-8.90492	0.953703	5.09948
647.787	13.0365	-8.87433	0.953577	5.13399
650.731	12.9053	-8.84527	0.953684	5.16785
653.676	12.75006	-8.8164	0.953921	5.2015
656.62	12.4151	-8.78665	0.953841	5.23955
659.564	11.86057	-8.75728	0.953955	5.28067
662.509	10.9717	-8.72765	0.953877	5.32478
665.453	5.47149	-8.69884	0.953943	5.4478
668.397	2.47821	-8.66843	0.953887	5.55098
671.3418	1.13929	-8.638895	0.954161	5.6085
674.286	-0.00343238	-8.61017	1.00209	0.292147
677.23	-0.00859188	-8.58043	1.0021	0.379307
680.1748	-0.00751669	-8.55074	1.00211	0.426219
683.119	-4.25382e-05	-8.52161	1.00211	0.457791
686.063	0.00613304	-8.49302	1.00217	0.479289
689.008	0.000521028	-8.46201	1.002054	0.49858
691.952	-0.00625318	-8.4334	1.00213	0.515755
694.896	-0.0120666	-8.409255	1.00203	0.528089
694.911	0.0011801	-8.40879	1.00239	0.52833