Folder: Tensile_force_data/shares/flx_lsms_hydrogen/EXPERIMENTAL_DATA/LABO_SOETE/WP1_TENSILE/AIR/MTS/LYARR1

Note: README.md
# Tensile_force_data

File: specimen.dat
MTS793|MPT|ENU|1|2|.|/|:|1|0|0|A

Data Acquisition						Time:	15.0195	s	12/17/2021 12:40:02 PM
Time	ESH B Force	ESH B Displacement	Analog In 2	Analog In 1
s	kN	mm	V	V
0.0332031	0.107452	0.999036	-0.00453795	-0.003348
3.22656	0.120182	1.00243	-0.0045376	-0.00327896
6.41992	0.125605	1.00524	-0.00458874	-0.0034872
9.61328	0.135298	1.0079	-0.00454586	-0.00336023
12.8066	0.140546	1.01034	-0.00459741	-0.00334678
16	0.150888	1.01466	-0.00464923	-0.00331496
19.1934	0.156082	1.01692	-0.0046229	-0.00333696
22.3867	0.157817	1.02058	-0.00458503	-0.00334896
25.5801	0.160698	1.02355	-0.004678064	-0.00346429
28.7734	0.166197	1.02677	-0.00465354	-0.00349768
31.9668	0.18378	1.02898	-0.00460604	-0.00327911
35.1602	0.206703	1.03386	-0.00464227	-0.00346847
38.3535	0.218259	1.03689	-0.00469867	-0.00338074
41.5469	0.241757	1.04088	-0.00461361	-0.00290212
44.7402	0.2524	1.04426	-0.00460988	-0.00295422
47.9336	0.275894	1.04797	-0.00463737	-0.0029401
51.127	0.296565	1.05164	-0.00460585	-0.002750312
54.3203	0.303322	1.05432	-0.00458106	-0.00273866
57.5137	0.317298	1.05783	-0.0047085	-0.00314159
60.707	0.330844	1.06193	-0.00471599	-0.00320358
63.9004	0.341973	1.06455	-0.00464382	-0.00257015
67.09375	0.3441135	1.06834	-0.00457254	-0.00232401
70.2871	0.380865	1.07207	-0.00458376	-0.00267217
73.4805	0.4129	1.07435	-0.00463716	-0.00288287
76.6738	0.429455	1.07837	-0.0046592	-0.00264672
79.8672	0.429917	1.08134	-0.0046855	-0.00249697
83.0605	0.490441	1.08593	-0.00468095	-0.00256282
86.2539	0.541094	1.08576	-0.00467457	-0.00230564
89.4473	0.551405	1.09301	-0.00472357	-0.00244143
92.6406	0.561398	1.09504	-0.00474402	-0.00258227
95.834	0.57967	1.09653	-0.004679522	-0.002345159
99.0273	0.599087	1.10011	-0.0046432	-0.002102575
102.2207	0.632744	1.103194	-0.00468741	-0.00236829
105.414	0.650435	1.10587	-0.00472982	-0.002578252
108.607	0.687582	1.10881	-0.00472688	-0.00217754
111.801	0.738935	1.11287	-0.00458581	-0.00188714
114.994	0.78928	1.11458	-0.00461873	-0.00186551
118.1875	1.08085	1.11702	-0.00469631	-0.00185023
121.381	1.08798	1.11978	-0.00469038	-0.00193862
124.574	1.10537	1.123	-0.00470109	-0.00186655
127.768	1.11526	1.12643	-0.00470837	-0.00201964
130.961	1.15027	1.12935	-0.00468404	-0.0019094
134.1543	1.22489	1.13315	-0.00462806	-0.00148061
137.348	1.28618	1.13561	-0.00466328	-0.0014773
140.541	1.29193	1.13861	-0.00468539	-0.00150037
143.734	1.73577	1.14482	-0.004629585	-0.000985066
146.928	1.993	1.146764	-0.00463724	-0.0006260745
150.121	2.04984	1.14892	-0.0046877	-0.000527005
153.314	2.14275	1.15181	-0.004618207	-0.000385186
156.508	2.31143	1.15523	-0.00468551	-5.15036e-05
159.701	2.30166	1.15904	-0.00467467	-0.000294863
162.895	2.35156	1.16121	-0.0046963	-0.000447514
166.088	2.39995	1.16642	-0.0047265	-8.94118e-05
169.281	2.56771	1.16807	-0.00470631	0.000171066
172.475	2.62007	1.17028	-0.00469218	0.00037357
175.668	2.67753	1.174562	-0.00467299	0.000478503
178.861	2.75504	1.17745	-0.00466636	0.000548111
182.055	2.875469	1.18074	-0.00472709	0.000704492
185.248	3.00145	1.18411	-0.00467045	0.00097366
188.441	3.25935	1.18594	-0.004628	0.00164928
191.635	3.19943	1.18995	-0.00467123	0.00144091
194.828	3.35321	1.19277	-0.00472244	0.00132224
198.021	3.45988	1.19738	-0.00463663	0.001889827
201.215	3.63263	1.200147	-0.00467341	0.00211337
204.4082	3.8244	1.19989	-0.00472795	0.00233322
207.602	3.82748	1.20708	-0.00465475	0.00254892
210.795	4.06527	1.21084	-0.00466208	0.003063902
213.988	4.09463	1.21368	-0.00469992	0.00303305
217.182	4.465313	1.21756	-0.00473723	0.00354639
220.375	4.43769	1.2223	-0.00471374	0.003461767
223.568	4.67609	1.22246	-0.00467206	0.00428702
226.762	4.64439	1.22524	-0.00462721	0.00453375
229.955	4.74742	1.22795	-0.00465748	0.00446646
233.148	4.77043	1.23413	-0.004688262	0.00443085
236.3418	4.92612	1.23716	-0.00471484	0.00462012
239.535	4.97011	1.24023	-0.004716849	0.004876595
242.729	5.09939	1.24353	-0.00468829	0.00535047
245.922	5.67907	1.24371	-0.00465399	0.00616104
249.115	5.677012	1.24858	-0.00464472	0.00657224
252.309	5.943522	1.251487	-0.00471358	0.00670213
255.502	5.97604	1.25966	-0.00475304	0.00649792
258.695	5.88599	1.26162	-0.00473428	0.00684658
261.889	6.06227	1.26112	-0.00464695	0.00712489
265.082	6.085897	1.26407	-0.00459	0.0072972
268.275	6.10817	1.26856	-0.00466619	0.00709322
271.469	6.19538	1.27056	-0.0046635	0.00753072
274.662	6.30322	1.27623	-0.00467894	0.00773179
277.855	6.404705	1.279127	-0.0047007	0.00750976
281.049	6.84038	1.28169	-0.00466251	0.00841216
284.242	7.47158	1.28382	-0.00465201	0.00973001
287.436	7.6972	1.28809	-0.00470079	0.0101658
290.629	7.6989	1.28949	-0.00471985	0.0100817
293.822	8.09981	1.292097	-0.00471735	0.0112572
297.016	8.08224	1.29782	-0.004756989	0.0110715
300.209	8.39829	1.29805	-0.00472386	0.0117336
303.402	8.45106	1.30365	-0.004681618	0.0119354
306.5957	8.56414	1.3065	-0.00465896	0.012257
309.789	8.82791	1.31063	-0.00469648	0.01280361
312.982	9.30061	1.31302	-0.00468802	0.0138785
316.176	9.2652	1.31611	-0.00468567	0.0139213
319.369	9.32451	1.32041	-0.004711289	0.0139452
322.5625	9.94183	1.32327	-0.00469806	0.015134
325.756	9.98824	1.32462	-0.00470323	0.0148724
328.949	9.91461	1.3311	-0.00475699	0.015067
332.143	10.301	1.33242	-0.00474759	0.0161333
335.336	10.66738	1.33539	-0.00467415	0.0163234
338.5293	10.8437	1.33861	-0.0046694	0.017121
341.723	10.8498	1.34195	-0.00466072	0.0175386
344.916	10.8646	1.34521	-0.00466598	0.0173263
348.109	10.8854	1.34704	-0.0047459	0.01722016
351.303	10.9301	1.35244	-0.00466017	0.0173455
354.496	11.0459	1.354165	-0.00473595	0.0174989
357.689	11.3966	1.356831	-0.00471795	0.0180883
360.883	11.6794	1.36057	-0.0046678	0.0192135
364.076	11.6645	1.36211	-0.00469126	0.0189939
367.27	12.1944	1.37173	-0.00467561	0.0204098
370.463	12.2091	1.36787	-0.00459278	0.0205827
373.656	12.1898	1.36745	-0.00463217	0.0206669
376.85	12.1619	1.378908	-0.0047095	0.0204778
380.043	12.18466	1.3804	-0.00466285	0.0203362
383.236	12.2396	1.383431	-0.00469504	0.0203575
386.43	12.4011	1.38672	-0.0047285	0.02050674
389.623	12.6423	1.38972	-0.00470329	0.02118507
392.816	12.839	1.39323	-0.004645	0.0217654
396.01	13.0809	1.39622	-0.00462648	0.0225444
399.203	13.2836	1.39941	-0.00469998	0.0229287
402.396	13.4244	1.4021	-0.004721147	0.0232013
405.59	13.6006	1.40533	-0.00466639	0.0233839
408.7832	13.8251	1.40876	-0.00470871	0.0238896
411.977	14.0378	1.41251	-0.0047241	0.0244366
415.17	14.2055	1.41457	-0.00467582	0.0248949
418.363	14.4132	1.41873	-0.00469575	0.0254268
421.557	14.6286	1.42163	-0.00468663	0.0256326
424.75	14.8438	1.42517	-0.00461672	0.0263832
427.943	15.03666	1.42786	-0.00465506	0.026984
431.137	15.23455	1.43148	-0.00464189	0.0274662
434.33	15.4167	1.43454	-0.00459278	0.0281846
437.523	15.6569	1.43823	-0.00460773	0.02841972
440.7168	15.8431	1.44116	-0.0046861	0.0287383
443.91	16.0263	1.44393	-0.00464218	0.029332
447.104	16.2584	1.44709	-0.0045873	0.0302976
450.297	16.4217	1.45053	-0.00460905	0.0306793
453.49	16.6849	1.45384	-0.00463124	0.0308796
456.684	16.8738	1.45667	-0.00461076	0.0310682
459.877	17.1421	1.46033	-0.00461451	0.0320912
463.07	17.3121	1.46303	-0.00457767	0.0328478
466.264	17.502	1.466737	-0.0046698	0.0327691
469.457	17.7173	1.46931	-0.00467049	0.0332318
472.65	17.9053	1.4732	-0.00457923	0.0341738
475.844	17.9865	1.47527	-0.00451733	0.0346873
479.037	18.2182	1.47847	-0.00460741	0.0350537
482.23	18.4823	1.48209	-0.00462194	0.035505
485.424	18.6893	1.485369	-0.00459844	0.0361728
488.617	18.8972	1.48915	-0.00457208	0.0367806
491.811	19.109	1.49154	-0.00460942	0.0373912
495.004	19.6393	1.49625	-0.00462426	0.03838468
498.197	20.0425	1.500031	-0.00459863	0.0396251
501.391	20.0769	1.50173	-0.00456051	0.04011346
504.584	20.0649	1.50262	-0.00459464	0.0402605
507.777	19.9879	1.50793	-0.00459865	0.040702
510.9707	20.6879	1.51031	-0.00463722	0.041682
514.164	20.6508	1.51516	-0.00466747	0.042107
517.357	21.0262	1.52008	-0.00469269	0.0427201
520.551	21.0117	1.516484	-0.00459466	0.0430792
523.744	21.1668	1.52259	-0.00457408	0.0444265
526.9375	21.4596	1.53128	-0.00460589	0.0447471
530.131	21.7417	1.53413	-0.00462501	0.0450994
533.324	21.4792	1.53393	-0.00459056	0.0469048
536.518	21.8941	1.53767	-0.004538144	0.0484159
539.711	22.1383	1.53944	-0.0046177	0.0481596
542.9043	22.2336	1.54145	-0.00465588	0.0481558
546.098	23.1911	1.5451	-0.00456765	0.0548861
549.291	23.1838	1.54889	-0.00459065	0.0553642
552.484	23.2241	1.55259	-0.0046674	0.0565884
555.678	23.46027	1.55578	-0.00462429	0.057011
558.871	23.85799	1.5569	-0.00456318	0.0598618
562.064	23.8516	1.557815	-0.00452626	0.06101682
565.258	23.8844	1.564	-0.00457944	0.0613809
568.451	24.0033	1.5682	-0.00462754	0.06277205
571.645	24.1073	1.57057	-0.004599696	0.0642819
574.838	24.2812	1.57526	-0.0045642	0.0661832
578.031	24.3441	1.57788	-0.00458398	0.0692301
581.225	24.4936	1.58107	-0.00451567	0.07080406
584.418	24.645	1.58448	-0.00456106	0.0722682
587.611	24.793	1.58864	-0.00453202	0.076453
590.805	25.0253	1.58889	-0.00447438	0.0784813
593.998	25.2599	1.61192	-0.004373041	0.0828297
597.191	26.7792	1.63007	-0.00422339	0.102873
600.385	27.0797	1.66123	-0.00426263	0.132835
603.578	27.2248	1.69293	-0.00421278	0.147106
606.771	27.4395	1.70988	-0.00417049	0.176513
609.965	27.4353	1.74111	-0.00421353	0.203448
613.1582	28.0576	1.76135	-0.004296904	0.223046
616.352	27.7625	1.78671	-0.00427611	0.254981
619.545	27.7362	1.80987	-0.00415835	0.291336
622.738	27.4992	1.83703	-0.00416901	0.315696
625.932	27.5479	1.86468	-0.004234531	0.3479552
629.125	27.1307	1.89243	-0.00430481	0.380414
632.318	27.09449	1.91585	-0.0042144	0.410259
635.512	26.8089	1.94115	-0.004275	0.442702
638.705	26.6604	1.96451	-0.004263612	0.475382
641.898	26.2535	1.990903	-0.00419125	0.51228
645.0918	25.99395	2.0153	-0.00423029	0.539983
648.285	25.4538	2.04546	-0.00425489	0.572701
651.479	25.1143	2.06927	-0.00420345	0.607992
654.672	24.7369	2.09331	-0.00421339	0.634736
657.865	24.5527	2.12052	-0.004273925	0.675034
661.059	23.9509	2.14702	-0.00420999	0.709247
664.252	23.6118	2.173002	-0.00417558	0.740981
667.445	23.2456	2.19755	-0.00413513	0.773947
670.639	22.3823	2.223	-0.00428459	0.812237
673.832	12.2697	2.24387	-0.00426538	0.974539
677.025	0.00153813	2.2735	-0.00416637	3.21631
680.219	0.00937766	2.29904	-0.00419812	3.27651
683.134	0.0109011	2.31822	-0.00424424	3.30922