Folder: Tensile_force_data/shares/flx_lsms_hydrogen/EXPERIMENTAL_DATA/LABO_SOETE/WP1_TENSILE/AIR/MTS/LYARR10

Note: README.md
# Tensile_force_data

File: specimen.dat
MTS793|MPT|ENU|1|2|.|/|:|1|0|0|A

Data Acquisition						Time:	15.0205	s	12/17/2021 3:49:39 PM
Time	ESH B Force	ESH B Displacement	Analog In 2	Analog In 1
s	kN	mm	V	V
0.0332031	0.1639927	1.00073	-0.0044087	-0.0124714
1.61523	0.184167	1.00415	-0.00448181	-0.0126195
3.19727	0.1811901	1.00702	-0.0045253	-0.0127432
4.7793	0.195899	1.01096	-0.00448003	-0.0127258
6.36133	0.215472	1.0138	-0.00446224	-0.0122213
7.94336	0.2217	1.01733	-0.0044671	-0.0119608
9.52539	0.245502	1.021284	-0.00443884	-0.0119616
11.1074	0.268133	1.02463	-0.004430667	-0.01213411
12.6895	0.30355	1.02785	-0.00441711	-0.0119783
14.2715	0.324398	1.03107	-0.00451597	-0.0120156
15.8535	0.346067	1.03623	-0.00446201	-0.011986
17.4355	0.348458	1.03985	-0.00440957	-0.0118379
19.0176	0.359891	1.04332	-0.00439282	-0.0117501
20.5996	0.36877	1.04545	-0.00439754	-0.0117731
22.1816	0.390591	1.04964	-0.00449423	-0.0118774
23.7637	0.418836	1.05237	-0.00446186	-0.0118124
25.3457	0.448095	1.05694	-0.004490484	-0.0119469
26.9277	0.463137	1.06115	-0.00448343	-0.0118415
28.5098	0.507202	1.06319	-0.00447545	-0.011712
30.0918	0.551045	1.067973	-0.00446774	-0.011306
31.6738	0.645617	1.07316	-0.00445724	-0.0112564
33.2559	0.811717	1.07407	-0.00449471	-0.0107377
34.8379	0.968655	1.07706	-0.00451034	-0.0105815
36.4199	1.02466	1.08207	-0.004493136	-0.0105988
38.002	1.08009	1.086	-0.004528746	-0.0103895
39.584	1.18138	1.089264	-0.00451789	-0.0102653
41.166	1.25123	1.09653	-0.00444484	-0.00960511
42.748	1.29738	1.09441	-0.00445459	-0.00928121
44.3301	1.36665	1.10415	-0.00445821	-0.00941552
45.9121	1.36339	1.10521	-0.00446232	-0.00955566
47.4941	1.39941	1.10769	-0.00448971	-0.00965527
49.0762	1.4438	1.11066	-0.00451461	-0.00927318
50.6582	1.814063	1.11097	-0.00444772	-0.00857983
52.2402	1.81606	1.11712	-0.00442571	-0.00848772
53.8223	1.833751	1.12081	-0.0044291	-0.00811648
55.4043	1.8543	1.1243	-0.00440776	-0.00808172
56.9863	2.27658	1.127879	-0.004460528	-0.007244112
58.5684	2.32746	1.13145	-0.0044971	-0.00738423
60.1504	2.4061	1.13497	-0.00455008	-0.00724177
61.7324	2.551152	1.13862	-0.00456432	-0.0070238
63.3145	2.69658	1.1426	-0.00456536	-0.00673004
64.8965	2.81681	1.14629	-0.0045203	-0.00632952
66.4785	2.927726	1.150054	-0.00450484	-0.00593725
68.0605	3.02869	1.15277	-0.0045031	-0.00585049
69.6426	3.19068	1.1573	-0.00450971	-0.00518392
71.2246	3.30177	1.16073	-0.00444296	-0.00489786
72.8066	3.464776	1.16375	-0.00449054	-0.00464
74.3887	3.59303	1.16752	-0.00452919	-0.0047481
75.9707	3.67529	1.17013	-0.00456286	-0.00452789
77.5527	3.8559	1.17391	-0.004535831	-0.00425875
79.1348	3.99749	1.17785	-0.004526794	-0.00361415
80.7168	4.129499	1.18168	-0.00447157	-0.00332995
82.2988	4.29972	1.18471	-0.00447702	-0.00254139
83.8809	4.37699	1.18782	-0.00445015	-0.00262612
85.4629	4.57223	1.19214	-0.00446487	-0.0022027
87.0449	4.78867	1.19666	-0.0045162	-0.00199082
88.627	4.92197	1.19962	-0.00452715	-0.00171536
90.209	5.05712	1.20343	-0.00451378	-0.00145636
91.791	5.13443	1.20563	-0.0045047	-0.00123432
93.373	5.38729	1.21059	-0.00445793	-0.000907451
94.9551	5.55403	1.21398	-0.00448623	-0.000562735
96.5371	5.70656	1.21764	-0.00443746	-0.0002649
98.1191	5.87743	1.22014	-0.00450709	0.00013655
99.7012	5.97	1.22325	-0.00456758	0.000191942
101.2832	6.24757	1.22801	-0.004547	0.000487266
102.865	6.59064	1.23141	-0.00451252	0.00158807
104.447	6.50249	1.23395	-0.004478306	0.00140108
106.0293	6.78527	1.23885	-0.004513755	0.00196069
107.611	6.93894	1.24226	-0.004508317	0.002173533
109.193	7.12031	1.2454	-0.00452643	0.00262371
110.775	7.3567	1.24996	-0.00454932	0.00299132
112.357	7.48236	1.25265	-0.00454936	0.003232348
113.939	7.71898	1.25557	-0.00448612	0.00413698
115.521	7.846509	1.25966	-0.00448191	0.0046236
117.104	8.05201	1.26255	-0.0044782	0.00489975
118.686	8.35578	1.2676	-0.00446266	0.00546205
120.268	8.6625	1.269298	-0.0044411	0.00621648
121.85	9.02884	1.276643	-0.00450046	0.00644344
123.432	8.85017	1.27785	-0.00451468	0.00639506
125.014	9.09838	1.28107	-0.00451457	0.00703779
126.5957	9.62311	1.28724	-0.0044865	0.00841749
128.178	9.54584	1.288152	-0.00443703	0.008214945
129.76	9.71544	1.29169	-0.00445424	0.00881462
131.3418	9.9335	1.29537	-0.00439322	0.00918805
132.924	10.1464	1.29884	-0.00447158	0.00966919
134.506	10.3961	1.30275	-0.00449671	0.0100624
136.088	10.5238	1.30549	-0.00453829	0.0101587
137.67	10.8151	1.30991	-0.00451437	0.0109128
139.252	11.0168	1.31354	-0.00444574	0.01130672
140.834	11.2223	1.31712	-0.004509924	0.0120516
142.416	11.8843	1.32071	-0.00448377	0.0136044
143.998	11.5615	1.32295	-0.00449288	0.0129313
145.58	11.83954	1.32696	-0.00452163	0.0134086
147.162	12.1144	1.3315	-0.00455087	0.01390834
148.744	12.292	1.33482	-0.00451295	0.0142002
150.326	12.5401	1.33837	-0.00447536	0.0148459
151.9082	12.7055	1.34068	-0.00445711	0.0157727
153.49	12.9984	1.34537	-0.00446697	0.0165836
155.072	13.3698	1.345142	-0.00440159	0.0174617
156.6543	13.3459	1.35162	-0.00447317	0.0173876
158.236	13.5843	1.35521	-0.00446797	0.0178603
159.818	14.182	1.35856	-0.00451684	0.01892738
161.4	14.2249	1.36247	-0.00452349	0.0192454
162.982	14.3793	1.36712	-0.004501516	0.0198533
164.564	14.4571	1.36962	-0.00448137	0.0199372
166.146	14.5605	1.38076	-0.00446386	0.0207081
167.729	14.5773	1.37558	-0.0044712	0.02071641
169.311	14.6355	1.38136	-0.0044371	0.0207736
170.893	14.6669	1.38547	-0.00452965	0.0208337
172.475	14.8137	1.38777	-0.00457791	0.0208604
174.057	14.9602	1.39131	-0.00459714	0.0212203
175.639	15.26234	1.39463	-0.00456115	0.0223271
177.2207	15.4695	1.39902	-0.00454462	0.0231274
178.803	15.792	1.40318	-0.00453218	0.0239966
180.385	16.0087	1.40373	-0.00459268	0.0245497
181.9668	16.1845	1.4098	-0.00457155	0.025292
183.549	16.5146	1.4127	-0.00459301	0.0263904
185.131	16.8222	1.41909	-0.004596537	0.0273329
186.713	16.8378	1.42009	-0.0045866	0.0280564
188.295	17.1798	1.42278	-0.00452615	0.0298924
189.877	17.4746	1.425444	-0.00455307	0.0316866
191.459	17.4538	1.43183	-0.00459209	0.0323796
193.041	17.60265	1.43535	-0.00457744	0.0334918
194.623	17.672	1.43921	-0.00455501	0.034847
196.205	17.7495	1.44087	-0.00450887	0.0361711
197.787	17.8401	1.44439	-0.004496526	0.0380807
199.369	18.0143	1.44831	-0.0045306	0.0405065
200.951	18.17926	1.45244	-0.00456836	0.0434008
202.5332	18.21876	1.45659	-0.00458345	0.04579819
204.115	18.391	1.45825	-0.00457435	0.0492679
205.697	18.3931	1.4632	-0.00453772	0.0520754
207.2793	18.43959	1.46705	-0.00454983	0.0546468
208.861	18.5295	1.4702	-0.00455055	0.0567267
210.443	18.6564	1.47423	-0.00458649	0.0589789
212.025	18.6667	1.47675	-0.004619169	0.0619966
213.607	18.8065	1.48087	-0.00459776	0.0651673
215.189	18.8928	1.48439	-0.004495298	0.0698011
216.771	18.86652	1.48751	-0.00450362	0.0720216
218.354	18.991	1.4919	-0.00447069	0.0740082
219.936	19.0442	1.49491	-0.00455979	0.0771657
221.518	19.1277	1.49912	-0.00450886	0.0807893
223.1	19.1456	1.50204	-0.00453828	0.0838995
224.682	19.2599	1.50578	-0.00455141	0.0867831
226.264	19.3076	1.50952	-0.00449597	0.09001188
227.8457	19.4178	1.51142	-0.00459173	0.093337
229.428	19.4911	1.51565	-0.0045561	0.0977759
231.01	19.4844	1.52015	-0.00461014	0.100798
232.5918	19.5645	1.52356	-0.00459107	0.104378
234.174	19.6229	1.52735	-0.00461002	0.107928
235.756	19.6478	1.53083	-0.00459849	0.111078
237.338	19.8592	1.53402	-0.00459024	0.11599
238.92	20.1434	1.53833	-0.00454944	0.130873
240.502	19.70166	1.54042	-0.00460541	0.134738
242.084	20.4811	1.56776	-0.00458285	0.157005
243.666	20.6434	1.599683	-0.00465614	0.182512
245.248	20.7769	1.626022	-0.00464067	0.198679
246.83	20.8535	1.65498	-0.0046529	0.236631
248.412	21.0862	1.68378	-0.00460558	0.259078
249.994	21.36437	1.71029	-0.004543432	0.290652
251.576	21.2384	1.7448	-0.00455556	0.326329
253.1582	21.1951	1.76723	-0.00457352	0.359765
254.74	21.0558	1.79271	-0.00459461	0.40243
256.322	21.02508	1.816828	-0.00460724	0.420238
257.9043	21.1153	1.85468	-0.00461592	0.451356
259.486	20.9918	1.8795	-0.00459242	0.4844487
261.068	20.8007	1.90983	-0.004515382	0.519014
262.65	20.8495	1.93822	-0.00415174	0.580763
264.232	20.7748	1.9659	-0.004167045	0.609407
265.814	20.7779	1.9977	-0.00417969	0.6285032
267.396	20.6452	2.01577	-0.00426077	0.660267
268.979	20.623	2.05463	-0.004209599	0.693491
270.561	20.3039	2.08142	-0.00423241	0.735131
272.143	20.1701	2.11099	-0.00421381	0.76428
273.725	20.1913	2.13897	-0.00423525	0.794165
275.307	20.0687	2.16638	-0.00419696	0.825565
276.889	19.9572	2.195802	-0.00423617	0.860012
278.4707	19.8031	2.22401	-0.00425348	0.894585
280.053	19.3867	2.250227	-0.00430561	0.944918
281.635	19.6641	2.27692	-0.00417779	0.976271
283.2168	18.9537	2.308208	-0.00414331	1.00453
284.799	19.0536	2.33598	-0.00416137	1.04289
286.381	19.1049	2.36762	-0.004223878	1.06592
287.963	18.6697	2.40005	-0.00419652	1.11584
289.545	18.824	2.42622	-0.0041938	1.132969
291.127	18.7021	2.45111	-0.0041959	1.16324
292.709	18.2388	2.48094	-0.00417058	1.2082
294.291	18.2143	2.50833	-0.00418257	1.23567
295.873	18.05335	2.53766	-0.00422006	1.27369
297.455	17.9066	2.567656	-0.00427244	1.30532
299.037	17.8669	2.59297	-0.0042746	1.3338
300.619	17.6694	2.62308	-0.00425521	1.36983
302.201	17.4614	2.65061	-0.00424858	1.40444
303.7832	17.3823	2.68056	-0.00419715	1.438396
305.365	17.0446	2.70941	-0.00421412	1.47498
306.947	16.9789	2.73645	-0.00420006	1.50612
308.5293	16.4769	2.76493	-0.004245786	1.54833
310.111	16.5314	2.79248	-0.00430451	1.5761
311.693	16.3244	2.82255	-0.00425066	1.61143
313.275	16.0229	2.85043	-0.00425661	1.64851
314.857	15.9434	2.8793	-0.00417917	1.68087
316.439	15.5302	2.90867	-0.00419289	1.72125
318.021	15.4581	2.93535	-0.004223397	1.74975
319.604	15.1671	2.963676	-0.00423227	1.78837
321.186	15.0017	2.99319	-0.00419674	1.82212
322.768	14.5359	3.02139	-0.00417333	1.86278
324.35	13.5331	3.04994	-0.00418649	1.90749
325.932	8.83336	3.0757	-0.00424186	2.00622
327.514	5.92485	3.107188	-0.00424604	2.07318
329.0957	1.50311	3.1357	-0.004222123	2.20242
330.678	0.00621079	3.16563	-0.004158563	5.343482
332.26	0.0167442	3.19376	-0.00423345	5.381711
333.8418	-0.00121651	3.22143	-0.004234395	5.42127
335.424	0.00466941	3.24705	-0.00425137	5.44919
337.006	0.0131422	3.26885	-0.00414747	5.4841
338.588	0.00361697	3.30721	-0.00413419	5.51715
339.291	0.00850117	3.31217	-0.00424913	5.52623