Folder: Tensile_force_data/shares/flx_lsms_hydrogen/EXPERIMENTAL_DATA/LABO_SOETE/WP1_TENSILE/H2_HC1/MTS/HYA5

Note: README.md
# Tensile_force_data

File: specimen.dat
MTS793|MPT|ENU|1|2|.|/|:|1|0|0|A

Data Acquisition						Time:	15.0205	s	1/18/2022 2:38:01 PM
Time	ESH B Force	ESH B Displacement	Analog In 2	Analog In 1
s	kN	mm	V	V
0.0332031	0.0536815	-18.0002	-0.1224744	0.00499344
4.17871	0.112604	-17.9587	-0.122385	0.00563033
8.32422	0.2225149	-17.9169	-0.121834	0.00582832
12.4697	0.3910524	-17.8755	-0.121117	0.00645812
16.6152	0.714043	-17.83445	-0.119691	0.00809382
20.7607	1.33157	-17.7928	-0.117555	0.0104964
24.90625	2.18718	-17.7509	-0.114234	0.0134758
29.0518	3.2455	-17.7091	-0.110008	0.0179917
33.1973	4.38102	-17.6677	-0.105119	0.0228189
37.3428	5.72474	-17.6272	-0.0995707	0.0282755
41.4883	7.20314	-17.5841	-0.0935257	0.0343574
45.6338	8.8154	-17.5443	-0.08639466	0.0413499
49.7793	10.4914	-17.5028	-0.0790839	0.0483417
53.9248	12.1539	-17.4596	-0.0699935	0.0567615
58.0703	13.5555	-17.41963	-0.05910708	0.0670537
62.21582	14.6385	-17.3784	-0.0442973	0.0815114
66.3613	15.3515	-17.336	-0.0256296	0.0987977
70.5068	15.7636	-17.2956	-0.00404464	0.11897
74.6523	16.0431	-17.25362	0.0193811	0.141464
78.7979	16.2048	-17.2133	0.0450687	0.165733
82.9434	16.3151	-17.1703	0.0710758	0.19046
87.0889	16.3723	-17.1308	0.0965748	0.215467
91.2344	16.4777	-17.0878	0.123749	0.24187
95.3799	16.5287	-17.04603	0.150393	0.267994
99.5254	16.6085	-17.0043	0.177977	0.295028
103.6709	16.60825	-16.9643	0.202803	0.319383
107.816	16.7015	-16.922	0.2287	0.344621
111.962	16.7573	-16.8819	0.255128	0.371098
116.107	16.7659	-16.8367	0.287351	0.4028666
120.253	16.8511	-16.7982	0.308038	0.422666
124.398	16.9136	-16.7569	0.333818	0.448004
128.544	16.8717	-16.71582	0.360346	0.474084
132.689	16.8377	-16.67255	0.392938	0.505903
136.835	17.0343	-16.6307	0.413136	0.525626
140.98	16.9839	-16.5936	0.452453	0.5654
145.126	17.0736	-16.5486	0.47804	0.590835
149.271	17.2015	-16.5062	0.498471	0.610203
153.417	17.2681	-16.4665	0.523534	0.634595
157.5625	17.1192	-16.4267	0.555347	0.666398
161.708	17.3609	-16.3838	0.567314	0.677758
165.854	17.3507	-16.3417	0.597142	0.707128
169.999	17.1902	-16.3021	0.62657	0.736394
174.145	17.4338	-16.2611	0.646024	0.755046
178.29	17.5123	-16.21781	0.670661	0.778947
182.436	17.6059	-16.1751	0.708156	0.81299
186.581	17.4447	-16.1365	0.730456	0.834881
190.727	17.6652	-16.0951	0.760754	0.864748
194.872	17.4826	-16.0504	0.776619	0.879872
199.018	17.77215	-16.0102	0.798938	0.902103
203.163	17.5157	-15.9697	0.830849	0.93316
207.309	17.7474	-15.9277	0.858313	0.96057
211.4541	17.7636	-15.8861	0.89395	0.995526
215.6	17.8077	-15.845	0.91996	1.020679
219.745	17.6972	-15.8018	0.9320296	1.03257
223.891	17.9105	-15.761	0.96966	1.06689
228.036	17.8446	-15.7174	0.994414	1.09153
232.182	17.78	-15.67849	1.01334	1.10972
236.327	17.9405	-15.638	1.03601	1.13173
240.473	17.7371	-15.5902	1.066116	1.16268
244.618	17.9333	-15.5541	1.08424	1.18016
248.764	17.91577	-15.5128	1.1156	1.21084
252.909	17.972	-15.4706	1.13789	1.23342
257.055	18.2551	-15.43066	1.1685	1.26337
261.2002	17.8507	-15.388	1.204	1.29851
265.3457	18.0144	-15.3473	1.22896	1.32269
269.491	18.1815	-15.304	1.25396	1.34818
273.637	17.9272	-15.2642	1.27111	1.36585
277.782	18.0377	-15.2235	1.29222	1.38624
281.928	18.0181	-15.1833	1.32998	1.419811
286.073	18.1945	-15.14074	1.3444	1.43457
290.219	18.2038	-15.0987	1.37057	1.45999
294.364	18.0943	-15.0569	1.41055	1.49977
298.51	17.9881	-15.0153	1.42985	1.51858
302.655	18.2113	-14.9733	1.45014	1.53848
306.801	18.27071	-14.931	1.47735	1.565788
310.946	18.261	-14.8909	1.51346	1.60144
315.0918	18.3425	-14.8493	1.52837	1.61629
319.2373	18.3391	-14.80409	1.55765	1.64522
323.383	18.4656	-14.7687	1.58766	1.67522
327.528	18.4801	-14.7272	1.621161	1.70828
331.674	18.3307	-14.6855	1.64984	1.73651
335.819	18.1957	-14.6435	1.6719	1.75834
339.965	18.2058	-14.6007	1.69748	1.78015
344.11	18.3505	-14.5598	1.72891	1.81137
348.256	18.3131	-14.519	1.75302	1.83631
352.401	18.4306	-14.4753	1.77958	1.862769
356.547	18.3554	-14.4356	1.80698	1.8902
360.692	18.36	-14.3947	1.83323	1.916296
364.838	18.41498	-14.3517	1.8601	1.94322
368.9834	18.3859	-14.3116	1.8867	1.96965
373.129	18.3348	-14.2692	1.91491	1.99761
377.274	18.4235	-14.2271	1.94017	2.02322
381.42	18.3476	-14.1878	1.96698	2.05025
385.565	18.4659	-14.1466	1.99621	2.07909
389.711	18.4566	-14.1027	2.02097	2.1045
393.856	18.3995	-14.0624	2.04758	2.12853
398.002	18.4572	-14.01844	2.07436	2.15536
402.147	18.407	-13.979	2.10132	2.182888
406.293	18.3787	-13.9387	2.12847	2.21012
410.438	18.4271	-13.8967	2.154376	2.23684
414.584	18.3366	-13.856	2.18232	2.26507
418.729	18.4574	-13.8127	2.20885	2.29184
422.875	18.4922	-13.77083	2.235	2.31817
427.021	18.33028	-13.7314	2.26273	2.34593
431.166	18.3041	-13.6897	2.29012	2.37365
435.312	18.4823	-13.644	2.31456	2.39813
439.457	18.1665	-13.6107	2.34419	2.42825
443.603	18.5193	-13.56793	2.36828	2.45302
447.748	18.445	-13.5229	2.38548	2.47033
451.894	18.5874	-13.4813	2.41445	2.49727
456.039	18.6845	-13.4354	2.4437	2.5276
460.185	18.2782	-13.4053	2.47723	2.56261
464.33	18.44136	-13.35918	2.50017	2.58702
468.476	18.5217	-13.31607	2.52724	2.61452
472.621	18.5071	-13.26827	2.55009	2.637773
476.7666	18.6714	-13.23	2.57883	2.66745
480.912	18.5101	-13.1906	2.6018	2.69163
485.058	18.5202	-13.1503	2.62702	2.71795
489.203	18.2936	-13.1087	2.66427	2.75681
493.349	18.6077	-13.0673	2.68785	2.78158
497.494	18.4933	-13.02488	2.71904	2.81458
501.64	18.5261	-12.9831	2.73584	2.83205
505.785	18.283	-12.9496	2.76997	2.86648
509.931	18.5408	-12.9012	2.7987	2.89816
514.076	18.4275	-12.86041	2.82486	2.92576
518.222	18.4495	-12.8146	2.85296	2.95636
522.367	18.4666	-12.7765	2.87679	2.981734
526.5127	18.412	-12.736	2.90642	3.01359
530.6582	18.4236	-12.6918	2.93376	3.04369
534.804	18.6046	-12.6525	2.94839	3.05925
538.949	18.5288	-12.6103	2.98627	3.10119
543.095	18.5902	-12.5696	3.00641	3.12352
547.24	18.5316	-12.5343	3.03317	3.1536
551.386	18.4761	-12.4855	3.064383	3.1891
555.531	18.3902	-12.4445	3.08855	3.21562
559.677	18.4407	-12.4044	3.10577	3.23506
563.822	18.4715	-12.3619	3.13098	3.2631
567.968	18.3268	-12.3245	3.16216	3.30055
572.113	18.2363	-12.2813	3.19639	3.34056
576.259	18.3784	-12.2391	3.21069	3.35715
580.4043	18.4754	-12.1973	3.23294	3.38312
584.5498	18.5187	-12.1543	3.25821	3.41299
588.695	18.4481	-12.1137	3.28338	3.44112
592.841	18.4672	-12.0728	3.30805	3.47151
596.986	18.44261	-12.0338	3.33999	3.51207
601.132	18.3596	-11.9883	3.35847	3.53586
605.277	18.7272	-11.9441	3.38283	3.56634
609.423	18.3347	-11.907	3.4108	3.60423
613.568	18.3118	-11.8665	3.4322	3.63205
617.714	18.2222	-11.8315	3.46153	3.6718
621.859	18.44812	-11.7815	3.47976	3.69687
626.005	18.1614	-11.7444	3.51219	3.74492
630.15	18.33312	-11.6991	3.53382	3.77707
634.2959	18.2952	-11.6634	3.55273	3.80611
638.441	18.3509	-11.6127	3.57622	3.84293
642.587	18.40205	-11.575	3.59913	3.87915
646.732	18.5017	-11.5316	3.61863	3.91197
650.878	18.41489	-11.4921	3.63691	3.94322
655.023	18.4551	-11.45223	3.65152	3.96901
659.169	18.3446	-11.40723	3.67364	4.0116
663.314	18.44076	-11.3633	3.6929	4.04997
667.46	18.1791	-11.3332	3.7053	4.07743
671.605	18.3719	-11.2834	3.72386	4.11926
675.751	18.331	-11.2426	3.73279	4.13949
679.896	18.3184	-11.199	3.75411	4.195663
684.042	18.3017	-11.1622	3.76563	4.22542
688.1875	18.2587	-11.1196	3.77908	4.26792
692.333	18.1479	-11.07788	3.79013	4.305439
696.479	18.13	-11.0268	3.79974	4.34054
700.624	18.2466	-10.9935	3.81126	4.38067
704.77	18.2027	-10.9563	3.818285	4.41317
708.915	18.1901	-10.9116	3.82803	4.45815
713.061	18.161	-10.8697	3.83505	4.49739
717.206	18.1605	-10.8277	3.84185	4.53704
721.352	18.1215	-10.7874	3.84761	4.57559
725.497	18.0462	-10.7456	3.85276	4.61555
729.643	18.0399	-10.7043	3.85767	4.65588
733.788	18.0011	-10.6624	3.86209	4.69517
737.934	17.6209	-10.6595	3.86109	4.70385
742.0791	17.5405	-10.66	3.828476	4.70384
746.225	17.4914	-10.6598	0.885569	4.70367
750.37	17.4765	-10.66	0.900898	4.70379
754.516	17.4861	-10.6606	0.906972	4.70441
758.661	17.999	-10.62128	0.912097	4.73245
762.807	17.9385	-10.5795	0.916768	4.77284
766.952	17.8918	-10.5378	0.921318	4.81309
771.098	17.8693	-10.4959	0.925253	4.85374
775.243	17.818	-10.4548	0.930222	4.89414
779.389	17.7616	-10.4131	0.935724	4.93393
783.534	17.7091	-10.3723	0.935668	4.97414
787.68	17.6462	-10.3305	0.939995	5.01392
791.8252	17.6069	-10.2891	0.944425	5.05494
795.9707	17.5528	-10.2478	0.949194	5.09492
800.116	17.4931	-10.20672	0.952421	5.134954
804.262	17.4082	-10.1646	0.956776	5.17646
808.407	17.3756	-10.123	0.962946	5.21656
812.553	17.308	-10.0814	0.96878	5.25679
816.698	17.2409	-10.0401	0.973257	5.297019
820.844	17.1542	-9.99794	0.976028	5.3381
824.989	17.103	-9.95701	0.977828	5.37823
829.135	17.0596	-9.91604	0.978701	5.41817
833.28	16.9535	-9.87412	0.980009	5.45995
837.426	16.8852	-9.83208	0.980857	5.49949
841.571	16.8013	-9.7904	0.981397	5.54047
845.7168	16.7253	-9.7496	0.982137	5.58065
849.8623	16.6507	-9.70845	0.982718	5.6218
854.008	16.56883	-9.66649	0.983695	5.66277
858.153	16.4716	-9.62569	0.984266	5.703383
862.299	16.3858	-9.58396	0.984793	5.74379
866.444	16.2898	-9.5421	0.985437	5.78431
870.59	16.1968	-9.50105	0.98599	5.82526
874.735	16.0982	-9.459	0.986675	5.86656
878.881	15.9972	-9.41743	0.987977	5.90728
883.026	15.8932	-9.37501	0.988892	5.94878
887.172	15.78487	-9.33468	0.9894489	5.9892
891.317	15.6575	-9.29261	0.9903121	6.02946
895.463	15.5413	-9.25228	0.990598	6.07113
899.6084	15.4323	-9.21076	0.991522	6.11171
903.754	15.4321	-9.17272	0.992236	6.15295
907.899	15.1604	-9.12785	0.9929406	6.19415
912.045	15.04415	-9.08676	0.992946	6.23512
916.19	14.9231	-9.0425	0.99334	6.27888
920.336	14.77761	-9.00422	0.993914	6.31647
924.481	14.5766	-8.96036	0.9946484	6.36327
928.627	14.4708	-8.9198	0.995238	6.40189
932.772	14.2988	-8.8774	0.995794	6.43168
936.918	14.2694	-8.84021	0.996415	6.46311
941.063	14.1304	-8.79927	0.997108	6.50306
945.209	13.9564	-8.757	0.997452	6.54599
949.354	13.8282	-8.71489	0.99778	6.58781
953.5	13.6526	-8.67329	0.998324	6.6295
957.646	13.4909	-8.6302	0.998629	6.67279
961.791	13.3373	-8.590271	0.998969	6.71777
965.937	13.0802	-8.54676	0.999476	6.76067
970.082	12.9073	-8.5051	0.999799	6.80164
974.228	12.6796	-8.46468	1.0001	6.84389
978.373	12.4652	-8.42218	1.00076	6.88621
982.519	10.2912	-8.38144	1.00136	6.95183
986.664	-0.00517742	-8.34118	1.00608	-0.2016058
987.777	-0.00682194	-8.33475	1.00583	-0.19596