Folder: Tensile_force_data/shares/flx_lsms_hydrogen/EXPERIMENTAL_DATA/LABO_SOETE/WP1_TENSILE/H2_HC1/MTS/HYARR13

Note: README.md
# Tensile_force_data

File: specimen.dat
MTS793|MPT|ENU|1|2|.|/|:|1|0|0|A

Data Acquisition						Time:	15.0205	s	1/27/2022 11:36:06 AM
Time	ESH B Force	ESH B Displacement	Analog In 2	Analog In 1
s	kN	mm	V	V
0.0332031	0.365801	3.99968	-0.0170232	-0.002015034
5.01367	0.487094	4.01193	-0.0170428	-0.00204426
9.99414	0.58593	4.02209	-0.0170487	-0.00202483
14.9746	0.706094	4.03249	-0.0167019	-0.00199919
19.9551	0.877292	4.04465	-0.01609358	-0.00225348
24.9355	1.07976	4.0557	-0.0155261	-0.00227644
29.916	1.32154	4.06724	-0.0149652	-0.00228768
34.8965	1.58228	4.07904	-0.0143179	-0.00229257
39.877	1.85454	4.09005	-0.013844	-0.00222349
44.8574	2.13112	4.10169	-0.012763	-0.00227593
49.8379	2.38096	4.1124	-0.0121651	-0.00229845
54.8184	2.646647	4.123003	-0.0118744	-0.00227868
59.7988	2.9656	4.13386	-0.0109828	-0.00227908
64.7793	3.31958	4.14558	-0.0104533	-0.00228547
69.7598	3.67719	4.157	-0.0092287	-0.00235135
74.7402	4.03284	4.168	-0.00825268	-0.00238994
79.7207	4.41023	4.1797	-0.00759907	-0.00237386
84.7012	4.7915	4.19048	-0.00669369	-0.00235701
89.6816	5.20865	4.20106	-0.00583531	-0.002296682
94.6621	5.54957	4.21297	-0.00493927	-0.0023264
99.6426	5.9454	4.22399	-0.004078689	-0.00240491
104.623	6.399868	4.23506	-0.00287094	-0.00253124
109.604	6.8809	4.24658	-0.00162793	-0.00252986
114.584	7.36378	4.25827	-0.000642839	-0.00188009
119.564	7.86662	4.26872	0.000462781	-0.002316
124.545	8.366045	4.28086	0.00163161	-0.00217523
129.525	8.88135	4.29202	0.0029283	-0.00243702
134.506	9.3867	4.3031	0.00410222	-0.00226559
139.486	9.89	4.31421	0.00536467	-0.00221637
144.4668	10.36928	4.324688	0.00661815	-0.00215899
149.447	10.9085	4.335959	0.00782964	-0.00212031
154.428	11.5194	4.34785	0.00932498	-0.00218186
159.4082	12.093	4.35838	0.0105055	-0.00249755
164.389	12.6888	4.36927	0.0121063	-0.00246035
169.369	13.2717	4.38157	0.0136335	-0.00239176
174.35	13.8588	4.39298	0.0150366	-0.00256592
179.33	14.4282	4.40384	0.016658	-0.00229471
184.311	14.9838	4.41468	0.0181659	-0.0021739
189.291	15.5239	4.42494	0.0196184	-0.002357441
194.271	16.0833	4.43673	0.0215433	-0.00250641
199.252	16.63933	4.44796	0.0233958	-0.00250381
204.232	17.182	4.45858	0.0258135	-0.0024716
209.213	17.7042	4.47045	0.0282634	-0.0023778
214.193	18.2063	4.48218	0.031952	-0.002337442
219.174	18.6325	4.493012	0.0359506	-0.00230035
224.1543	18.9283	4.503788	0.0424035	-0.00227289
229.135	19.2256	4.51508	0.0480996	-0.00230035
234.115	19.4738	4.52708	0.0555044	-0.0022703
239.0957	19.6767	4.53829	0.063112	-0.0022646
244.076	19.8439	4.54938	0.0717121	-0.00223897
249.057	20.0616	4.55456	0.0799543	-0.00230186
254.037	20.1433	4.57129	0.08915925	-0.00233296
259.018	20.3065	4.58302	0.0976002	-0.00233036
263.998	20.47086	4.59491	0.106998	-0.00227492
268.979	20.5619	4.60537	0.115287	-0.00232087
273.959	20.6768	4.61722	0.124681	-0.002372873
278.939	20.8472	4.62701	0.133822	-0.00268413
283.92	20.9203	4.63872	0.142763	-0.00241806
288.9	21.0023	4.64912	0.152571	-0.00244535
293.881	21.10495	4.66117	0.161918	-0.0026789
298.861	21.1831	4.67172	0.171444	-0.00261686
303.8418	21.2723	4.68224	0.181927	-0.00222471
308.822	21.3503	4.693223	0.191296	-0.00231527
313.803	21.4377	4.70462	0.201379	-0.00253503
318.7832	21.533	4.71682	0.211735	-0.00245261
323.764	21.6068	4.72792	0.221473	-0.00235759
328.744	21.6473	4.73875	0.23132	-0.00228329
333.725	21.7567	4.750289	0.24204	-0.00226596
338.705	21.7972	4.76162	0.252377	-0.00227983
343.686	21.8316	4.77261	0.262455	-0.00230485
348.666	21.8498	4.78372	0.273378	-0.0025883
353.646	21.8826	4.79425	0.283381	-0.00273775
358.627	21.9506	4.80654	0.293829	-0.00275228
363.607	21.9899	4.81781	0.304544	-0.00268642
368.588	22.0311	4.82934	0.31561	-0.00267307
373.568	22.0777	4.84054	0.325883	-0.00258951
378.549	22.1016	4.851438	0.337235	-0.00239388
383.5293	22.1501	4.86379	0.347665	-0.00234131
388.51	22.171	4.87516	0.359023	-0.0023418
393.49	22.0938	4.88871	0.387648	-0.00253958
398.4707	21.95064	4.89604	0.391918	-0.002574347
403.451	22.1022	4.9086	0.396043	-0.00263488
408.432	22.2539	4.92018	0.402303	-0.00262969
413.412	22.0977	4.93226	0.416593	-0.002450949
418.393	22.3012	4.94249	0.4236452	-0.00242454
423.373	22.2805	4.95363	0.434544	-0.00262704
428.354	22.2755	4.9655	0.445887	-0.002459628
433.334	22.2802	4.97554	0.456842	-0.002261111
438.314	22.2879	4.98726	0.4678731	-0.00240909
443.295	22.2939	4.99824	0.478813	-0.00253172
448.275	22.2668	5.00883	0.489851	-0.00231587
453.256	22.2414	5.0202	0.500854	-0.00253385
458.236	22.2255	5.031321	0.512674	-0.00265344
463.2168	22.2076	5.04183	0.523049	-0.00245758
468.197	22.25609	5.05143	0.534701	-0.00256992
473.178	22.0375	5.0653	0.561055	-0.0027158
478.1582	22.085	5.0816	0.5732882	-0.0027354
483.139	21.9834	5.08595	0.578101	-0.00262836
488.119	21.9939	5.09699	0.5911473	-0.00232982
493.1	21.9745	5.10968	0.5988391	-0.00241409
498.08	21.9819	5.1197	0.604481	-0.00261159
503.061	21.9991	5.1296	0.615826	-0.00258738
508.041	21.931	5.14174	0.628484	-0.0024763
513.021	22.0643	5.15425	0.637948	-0.00237485
518.002	22.042	5.16371	0.649755	-0.00276245
522.982	22.0035	5.17581	0.662218	-0.002637631
527.963	21.9262	5.18657	0.673208	-0.00244881
532.943	21.9078	5.19769	0.6845094	-0.00258011
537.924	21.9119	5.20991	0.696667	-0.00277452
542.9043	21.9083	5.22027	0.707923	-0.0027583
547.885	21.6379	5.23325	0.724787	-0.002605686
552.865	21.71694	5.24223	0.7345528	-0.002320512
557.8457	21.7348	5.2543	0.742469	-0.00255124
562.826	21.7827	5.26527	0.755921	-0.00266286
567.807	21.8344	5.27679	0.765111	-0.00243508
572.787	21.5612	5.28841	0.779584	-0.00240535
577.768	21.7071	5.2991	0.787972	-0.002404
582.748	21.6185	5.31009	0.800734	-0.00281146
587.729	21.6533	5.32118	0.810215	-0.00265787
592.709	21.5287	5.33275	0.824258	-0.00249878
597.689	21.4145	5.34504	0.837841	-0.00230676
602.67	21.5546	5.3558	0.844862	-0.00233437
607.65	21.5154	5.36609	0.857323	-0.00270741
612.631	21.492	5.37544	0.871356	-0.00272974
617.611	21.4655	5.38877	0.881349	-0.00276352
622.5918	21.4022	5.3995	0.892625	-0.00280635
627.572	21.3646	5.41131	0.904588	-0.00255671
632.553	21.1765	5.42279	0.936117	-0.0024172
637.5332	21.1921	5.4341	0.946445	-0.00262154
642.514	21.0896	5.44034	0.950174	-0.00266829
647.494	21.18363	5.45298	0.956276	-0.00265236
652.475	21.111	5.46669	0.966473	-0.00263639
657.455	21.2095	5.47805	0.975395	-0.0026353
662.436	21.08552	5.49315	0.993102	-0.00240079
667.416	20.92725	5.50048	1.016073	-0.00231007
672.396	20.9454	5.51176	1.02748	-0.00261162
677.377	20.89518	5.52211	1.03819	-0.00277026
682.357	20.8555	5.53412	1.05036	-0.00274023
687.338	20.80714	5.54482	1.06222	-0.0027763
692.318	20.7475	5.55632	1.07328	-0.00276814
697.299	20.6988	5.56597	1.08328	-0.002551975
702.2793	20.6006	5.58182	1.08649	-0.00237317
707.26	20.5193	5.58962	1.11023	-0.00263349
712.24	20.3633	5.60124	1.12436	-0.002564169
717.2207	20.4959	5.61236	1.13353	-0.0023549
722.201	20.3944	5.62882	1.14384	-0.00282837
727.182	20.3777	5.63723	1.14781	-0.00270083
732.162	20.5177	5.64669	1.15517	-0.00253969
737.143	20.4542	5.65782	1.16764	-0.00250942
742.123	20.5421	5.66929	1.17924	-0.00252952
747.104	20.2933	5.67757	1.19018	-0.0027981
752.084	20.2693	5.69111	1.200255	-0.0027047
757.064	20.2713	5.70271	1.21199	-0.002299425
762.045	20.2308	5.713738	1.224316	-0.00256779
767.025	19.838	5.7276	1.24965	-0.00261563
772.006	19.9494	5.73701	1.26682	-0.00235227
776.986	20.0338	5.74883	1.27611	-0.00265948
781.9668	19.9106	5.75898	1.29045	-0.00270258
786.947	19.8799	5.771245	1.29927	-0.00252257
791.928	19.7509	5.78353	1.30903	-0.00244669
796.9082	19.6144	5.79351	1.32098	-0.002715264
801.889	19.5529	5.804492	1.32333	-0.00272861
806.869	19.9278	5.817627	1.3311	-0.00258146
811.85	19.4036	5.82818	1.35278	-0.0022985
816.83	19.5711	5.83962	1.35618	-0.00240704
821.811	19.6667	5.85168	1.365906	-0.00254949
826.791	19.58139	5.86332	1.37807	-0.00252195
831.771	19.6233	5.87318	1.38759	-0.00245271
836.752	19.58082	5.88333	1.39975	-0.00231551
841.732	19.1789	5.89444	1.42936	-0.00271399
846.713	19.1811	5.90383	1.44125	-0.00264858
851.693	19.1108	5.91463	1.453414	-0.00247577
856.674	19.04888	5.92533	1.46565	-0.00260293
861.6543	18.9338	5.94292	1.47507	-0.00273649
866.635	18.9613	5.94528	1.47821	-0.00234033
871.615	19.0083	5.95974	1.48391	-0.0026364
876.5957	18.9182	5.97223	1.50074	-0.00258141
881.576	18.9056	5.98301	1.509691	-0.00236416
886.557	18.8018	5.99394	1.52146	-0.00259514
891.537	18.7587	6.00461	1.53242	-0.00280266
896.518	18.5405	6.01675	1.56392	-0.00259826
901.498	18.5285	6.02842	1.57514	-0.002584042
906.479	18.4756	6.03945	1.58665	-0.00275097
911.459	18.3528	6.0553	1.59958	-0.0024904
916.439	18.3118	6.06429	1.60419	-0.00262284
921.42	18.2927	6.07452	1.60915	-0.0024141
926.4	18.4179	6.08512	1.617	-0.00282048
931.381	18.3689	6.09752	1.62839	-0.002531705
936.361	18.268	6.10761	1.64047	-0.00250514
941.3418	18.1692	6.11883	1.6536	-0.00267101
946.322	18.0883	6.12981	1.66506	-0.00274987
951.303	17.9593	6.13859	1.67768	-0.00270775
956.2832	17.9064	6.15043	1.689342	-0.00238248
961.264	13.2837	6.15935	1.75224	-0.00250998
966.244	14.6379	6.17314	1.75954	-0.00261802
971.225	15.0409	6.18244	1.76938	-0.00235799
976.205	14.8861	6.19597	1.77974	-0.0025385
981.186	14.8797	6.20699	1.7915	-0.00284018
986.166	14.8427	6.21824	1.80387	-0.00248713
991.146	14.80166	6.22942	1.81656	-0.00277495
996.127	14.7767	6.24139	1.82826	-0.00257971
1001.11	14.6829	6.25271	1.84442	-0.00262579
1006.09	14.6918	6.26438	1.85334	-0.00257332
1011.07	14.6714	6.27636	1.86303	-0.002404283
1016.05	14.633	6.28712	1.87487	-0.00280699
1021.03	14.6335	6.29672	1.8872	-0.002750071
1026.01	14.5479	6.308321	1.8988	-0.00257768
1030.99	14.4118	6.318965	1.91075	-0.0025252
1035.97	13.5834	6.33122	1.92317	-0.00270239
1040.95	13.889	6.34121	1.925038	-0.002767107
1045.93	14.2775	6.35466	1.93603	-0.00258103
1050.91	14.1583	6.36762	1.96014	-0.00235619
1055.89	14.1739	6.37318	1.97352	-0.002623898
1060.873	13.9776	6.39041	1.98633	-0.00246835
1065.85	13.8589	6.39869	2.00072	-0.002377158
1070.834	13.7187	6.4098	2.01153	-0.00249824
1075.81	13.57527	6.42177	2.01559	-0.00266951
1080.79	13.3834	6.43239	2.0311	-0.00274039
1085.78	13.1393	6.443471	2.04055	-0.00286708
1090.76	12.2202	6.45428	2.07812	-0.00267368
1095.74	11.39601	6.46504	2.0998	-0.00252702
1100.72	-0.00780458	6.47586	7.28296	-0.00238339
1105.46	-0.0107035	6.48164	7.31078	-0.00238187