Folder: Tensile_force_data/shares/flx_lsms_hydrogen/EXPERIMENTAL_DATA/LABO_SOETE/WP1_TENSILE/H2_HC1/MTS/LYA5

Note: README.md
# Tensile_force_data

File: specimen.dat
MTS793|MPT|ENU|1|2|.|/|:|1|0|0|A

Data Acquisition						Time:	15.0195	s	1/19/2022 2:03:24 PM
Time	ESH B Force	ESH B Displacement	Analog In 2	Analog In 1
s	kN	mm	V	V
0.0332031	0.02639891	-19.9995	-0.0699026	0.00588862
3.40234	0.00828582	-19.9686	-0.0695475	0.00592439
6.77148	0.0261686	-19.9335	-0.0696036	0.00573708
10.1406	0.0150713	-19.8986	-0.0695636	0.00568378
13.5098	0.0245145	-19.86544	-0.0692964	0.0054739
16.8789	0.0203858	-19.8313	-0.0696262	0.005560589
20.248	0.0677762	-19.798	-0.0692416	0.00606424
23.6172	0.120164	-19.7648	-0.0690025	0.00609574
26.9863	0.235846	-19.7303	-0.0684582	0.00686323
30.3555	0.364432	-19.6965	-0.067806	0.00700362
33.7246	0.605205	-19.6637	-0.0666347	0.00765334
37.09375	1.02437	-19.6304	-0.0647311	0.00961608
40.4629	1.65874	-19.5954	-0.0620333	0.0124218
43.832	2.39527	-19.5621	-0.0589409	0.0157397
47.2012	3.33756	-19.5267	-0.0549928	0.0191641
50.5703	4.24611	-19.4937	-0.0507003	0.0226736
53.9395	5.25473	-19.4608	-0.0463165	0.0271744
57.3086	6.42698	-19.4272	-0.0411654	0.03202885
60.6777	7.68834	-19.3935	-0.0353847	0.0375471
64.0469	8.96789	-19.3594	-0.0293496	0.0427191
67.416	10.2715	-19.3261	-0.0230479	0.0489058
70.7852	11.83964	-19.2906	-0.014653	0.0569799
74.1543	13.0932	-19.2592	-0.00800696	0.0633452
77.5234	14.3422	-19.2246	0.000210772	0.0721173
80.8926	15.3479	-19.19175	0.01055658	0.08338505
84.2617	15.8005	-19.1566	0.0245396	0.100266
87.6309	15.891	-19.1239	0.0382728	0.122993
91	15.9587	-19.08902	0.0511321	0.147304
94.3691	16.0279	-19.0565	0.0648655	0.172621
97.7383	16.0648	-19.02198	0.0817349	0.198827
101.107	16.0842	-18.9896	0.1002197	0.224079
104.477	16.0847	-18.9555	0.120479	0.248109
107.8457	16.1405	-18.9228	0.142409	0.270883
111.215	16.1872	-18.88855	0.16566	0.291983
114.584	16.2252	-18.8546	0.188585	0.310969
117.953	16.2205	-18.821	0.212547	0.329155
121.322	16.3138	-18.7866	0.236428	0.346145
124.691	16.2918	-18.7539	0.260911	0.3627691
128.061	16.3553	-18.7192	0.284052	0.378472
131.43	16.413	-18.68602	0.306586	0.39469
134.799	16.6249	-18.6753	0.329255	0.411802
138.168	16.4806	-18.6196	0.351165	0.429493
141.537	16.5057	-18.5843	0.372573	0.448347
144.906	16.5595	-18.5513	0.393283	0.466883
148.275	16.59828	-18.5178	0.414753	0.48669
151.645	16.5806	-18.4838	0.435762	0.50618
155.014	16.6194	-18.4509	0.455858	0.5251478
158.383	16.3102	-18.4177	0.479657	0.5477429
161.752	16.7398	-18.3831	0.4970417	0.564306
165.121	16.8168	-18.3446	0.519689	0.586293
168.49	16.8038	-18.3178	0.537668	0.601967
171.859	16.9101	-18.281	0.558438	0.621881
175.229	16.9068	-18.2478	0.579206	0.641651
178.598	16.9631	-18.2147	0.599858	0.661957
181.9668	16.9659	-18.1805	0.620021	0.681511
185.336	16.9491	-18.1478	0.641149	0.702412
188.705	17.0653	-18.1124	0.660626	0.721059
192.074	17.0682	-18.0797	0.680853	0.74055
195.443	17.0995	-18.0459	0.700956	0.760262
198.8125	17.1102	-18.0116	0.722008	0.78111
202.182	17.1549	-17.9775	0.742473	0.8011356
205.551	17.1835	-17.9455	0.762829	0.820627
208.92	17.2243	-17.9105	0.783433	0.8410337
212.289	17.243	-17.8777	0.803567	0.860588
215.6582	17.2104	-17.8445	0.823959	0.878686
219.027	17.29118	-17.8104	0.843953	0.898958
222.396	17.2891	-17.7773	0.864709	0.919588
225.766	17.3363	-17.7421	0.885347	0.9400931
229.135	17.353	-17.7088	0.9055419	0.959872
232.504	17.35	-17.6761	0.925982	0.980477
235.873	17.38982	-17.6419	0.945918	1.00102
239.242	17.3648	-17.6093	0.966318	1.02082
242.611	17.4033	-17.576	0.986703	1.041187
245.98	17.4358	-17.5407	1.00745	1.06192
249.35	17.4379	-17.5058	1.02825	1.08208
252.719	17.4383	-17.4733	1.04838	1.10263
256.088	17.4713	-17.4396	1.06887	1.12314
259.457	17.4953	-17.4056	1.089577	1.14366
262.826	17.4783	-17.3726	1.10972	1.16166
266.195	17.5557	-17.3385	1.130576	1.1827
269.564	17.5391	-17.3058	1.15133	1.20397
272.934	17.5448	-17.2706	1.17203	1.22509
276.303	17.5515	-17.2377	1.19182	1.24563
279.672	17.5748	-17.2044	1.21296	1.26641
283.041	17.5903	-17.1695	1.23298	1.286768
286.41	17.6088	-17.1367	1.25315	1.30748
289.7793	17.672	-17.1031	1.27412	1.328912
293.148	17.5912	-17.0695	1.29488	1.34968
296.518	17.5967	-17.035	1.31529	1.37011
299.887	17.6141	-17.0031	1.33555	1.39054
303.256	17.6351	-16.9684	1.35629	1.41226
306.625	17.6549	-16.9334	1.376636	1.43302
309.994	17.6575	-16.8994	1.39647	1.45332
313.363	17.67849	-16.8663	1.418	1.47343
316.732	17.6747	-16.8328	1.43791	1.49453
320.102	17.6139	-16.7995	1.45885	1.51589
323.4707	17.676	-16.766	1.478573	1.53596
326.84	17.6509	-16.7321	1.49946	1.55797
330.209	17.6608	-16.6974	1.51978	1.5788
333.578	17.6713	-16.6658	1.54005	1.59982
336.947	17.6835	-16.6308	1.56089	1.62149
340.316	17.7127	-16.5962	1.58154	1.64307
343.686	17.714	-16.5629	1.60131	1.66356
347.055	17.659	-16.52998	1.62336	1.68478
350.424	17.7153	-16.4953	1.64658	1.70965
353.793	17.64465	-16.46335	1.66247	1.72656
357.162	17.74205	-16.4294	1.68272	1.74839
360.531	17.6934	-16.3959	1.70275	1.76939
363.9	17.6661	-16.3617	1.72409	1.79189
367.27	17.7002	-16.3294	1.74312	1.81264
370.639	17.6747	-16.2948	1.76342	1.83446
374.008	17.6993	-16.2602	1.78358	1.85598
377.377	17.7376	-16.2269	1.80382	1.87776
380.746	17.6586	-16.1935	1.82552	1.90218
384.115	17.7604	-16.1585	1.84332	1.92125
387.484	17.58638	-16.1259	1.86683	1.946
390.854	17.7626	-16.0912	1.88257	1.963717
394.223	17.7739	-16.0572	1.902077	1.98501
397.5918	17.7203	-16.0247	1.92189	2.00737
400.961	17.7731	-15.9914	1.94148	2.02955
404.33	17.7373	-15.9572	1.96129	2.05179
407.699	17.6975	-15.9236	1.98096	2.07438
411.068	17.7397	-15.8887	2.00117	2.09747
414.4375	17.7109	-15.8561	2.01872	2.1184
417.807	17.7137	-15.8214	2.03778	2.14108
421.176	17.6752	-15.79	2.05766	2.1639
424.545	17.6801	-15.7554	2.0754	2.185405
427.914	17.7104	-15.72033	2.09426	2.20816
431.2832	17.7074	-15.6878	2.11233	2.22871
434.652	17.7122	-15.65472	2.130023	2.2523
438.021	17.7321	-15.6189	2.14832	2.27477
441.391	17.50703	-15.5857	2.17149	2.30506
444.76	17.7071	-15.5523	2.18369	2.32123
448.129	17.7095	-15.51792	2.202714	2.34529
451.498	17.7036	-15.48547	2.21818	2.36617
454.867	17.7136	-15.4518	2.23774	2.39283
458.236	17.6237	-15.4164	2.25305	2.41487
461.605	17.6333	-15.3852	2.26866	2.43659
464.975	17.7432	-15.3503	2.28499	2.45983
468.344	17.69771	-15.3175	2.30059	2.48267
471.713	17.636	-15.2833	2.31612	2.507
475.082	17.7002	-15.2498	2.33084	2.53108
478.451	17.6614	-15.2161	2.34548	2.55576
481.82	17.6063	-15.1827	2.35952	2.58086
485.189	17.6792	-15.1481	2.37274	2.60552
488.559	17.6537	-15.11453	2.38851	2.63528
491.928	17.6115	-15.0823	2.39965	2.65896
495.297	17.6063	-15.0487	2.40989	2.68228
498.666	17.5905	-15.0146	2.42126	2.709475
502.035	17.5805	-14.9793	2.4312	2.73567
505.4043	17.7269	-14.9474	2.44191	2.76475
508.773	17.55213	-14.9139	2.44917	2.7897
512.143	17.5434	-14.8793	2.45745	2.81817
515.512	17.5491	-14.847	2.465127	2.84756
518.881	17.461	-14.8127	2.47185	2.878211
522.25	17.4644	-14.7774	2.47879	2.91415
525.619	17.4684	-14.7454	2.48547	2.95712
528.988	17.42247	-14.7117	2.48708	2.9722
532.357	17.4779	-14.6766	2.490721	2.99244
535.727	17.3304	-14.6415	2.49475	3.027019
539.0957	17.5403	-14.6098	2.497792	3.05443
542.465	17.2231	-14.5763	2.49928	3.10651
545.834	17.3163	-14.5447	2.5011	3.13577
549.203	17.1288	-14.5069	2.50173	3.16277
552.572	17.1792	-14.4748	2.50363	3.1977
555.941	17.3823	-14.4437	2.50505	3.21492
559.311	17.1914	-14.4078	2.50601	3.26776
562.68	16.691	-14.40423	2.50302	3.27362
566.049	16.67671	-14.40328	2.50267	3.27314
569.418	16.6285	-14.404	2.47976	3.27383
572.787	16.626	-14.4027	1.87572	3.27381
576.156	16.5748	-14.4036	0.245955	3.27303
579.525	16.5785	-14.4038	0.784381	3.273195
582.895	16.5376	-14.4033	0.782504	3.27358
586.264	16.5711	-14.4039	0.782837	3.27329
589.633	17.0385	-14.3928	0.845869	3.27549
593.002	17.1351	-14.3614	0.877088	3.304419
596.371	17.2691	-14.3276	0.875845	3.33601
599.74	17.1472	-14.2934	0.883701	3.36962
603.109	17.0874	-14.2591	0.882841	3.40171
606.479	16.9576	-14.22317	0.882173	3.43856
609.848	17.1284	-14.19229	0.882253	3.462975
613.2168	16.8191	-14.1574	0.8851611	3.5043
616.586	17.02393	-14.1213	0.883971	3.53363
619.955	16.9328	-14.089	0.885169	3.56555
623.324	16.8552	-14.0561	0.887675	3.5976
626.693	16.8344	-14.0208	0.887635	3.63665
630.0625	16.7941	-13.9851	0.888497	3.67047
633.432	16.7193	-13.9556	0.891666	3.69609
636.801	16.525	-13.9204	0.894996	3.73317
640.17	16.5959	-13.8873	0.89565	3.76309
643.539	16.40176	-13.8546	0.894271	3.79763
646.9082	16.3974	-13.8213	0.893985	3.82903
650.277	16.4141	-13.7868	0.892155	3.8612
653.646	16.3309	-13.7556	0.891033	3.89274
657.016	16.0684	-13.7197	0.889945	3.93046
660.385	16.2426	-13.6811	0.887302	3.96513
663.754	16.0768	-13.6518	0.884558	3.99678
667.123	16.1392	-13.61883	0.885054	4.02477
670.492	16.1409	-13.5872	0.89103	4.06044
673.861	15.8587	-13.5518	0.895886	4.09487
677.23	15.9493	-13.5171	0.898039	4.12463
680.6	15.808	-13.4846	0.898596	4.15734
683.969	15.8989	-13.4532	0.898244	4.19009
687.338	15.5736	-13.416	0.897957	4.22587
690.707	15.615	-13.3836	0.89732	4.25605
694.076	15.6986	-13.3436	0.8970589	4.29041
697.445	15.5378	-13.3153	0.89678	4.32776
700.814	15.2531	-13.2833	0.896451	4.360178
704.184	15.1965	-13.2443	0.896455	4.38556
707.553	15.2989	-13.2135	0.896385	4.407
710.922	14.9176	-13.1816	0.896407	4.45962
714.291	14.9979	-13.1469	0.895652	4.49313
717.66	14.8931	-13.1116	0.895639	4.52636
721.0293	14.8666	-13.0806	0.895641	4.55605
724.398	14.6453	-13.0452	0.895677	4.58432
727.768	14.7642	-13.0107	0.895573	4.6181
731.137	14.498	-12.9778	0.895602	4.66156
734.506	14.3842	-12.944	0.8955754	4.6934
737.875	14.3658	-12.9121	0.895623	4.73001
741.244	14.3034	-12.8781	0.895639	4.75643
744.613	14.166	-12.8444	0.8957898	4.79155
747.982	14.0684	-12.8115	0.896739	4.82277
751.352	13.988	-12.7776	0.897513	4.8588
754.7207	13.793	-12.7383	0.90067	4.89549
758.09	13.6603	-12.70885	0.9034813	4.9142
761.459	13.7437	-12.6745	0.904014	4.94198
764.828	13.4156	-12.6404	0.904011	4.98459
768.197	13.3171	-12.60855	0.90399	5.01241
771.566	13.3275	-12.5733	0.90315	5.04259
774.936	13.0401	-12.539	0.901094	5.08462
778.305	12.9039	-12.5078	0.899718	5.11202
781.674	12.8502	-12.4762	0.898792	5.14655
785.043	12.706	-12.4372	0.898576	5.180788
788.412	12.4585	-12.4073	0.898287	5.21392
791.781	12.3509	-12.3684	0.898465	5.25039
794.491	-0.110249	-12.2966	0.898794	5.30053