Folder: Tensile_force_data/shares/flx_lsms_hydrogen/EXPERIMENTAL_DATA/LABO_SOETE/WP1_TENSILE/H2_HC1/MTS/LYARR4

Note: README.md
# Tensile_force_data

File: specimen.dat
MTS793|MPT|ENU|1|2|.|/|:|1|0|0|A

Data Acquisition						Time:	15.0205	s	1/26/2022 1:38:39 PM
Time	ESH B Force	ESH B Displacement	Analog In 2	Analog In 1
s	kN	mm	V	V
0.0341797	0.269008	1.99871	-0.0658456	-0.00290686
4.37012	0.306757	2.00288	-0.0658595	-0.00285054
8.70605	0.353428	2.00991	-0.0655147	-0.002598065
13.042	0.35681	2.01107	-0.0655556	-0.002812237
17.37793	0.388908	2.01628	-0.0656072	-0.003032404
21.7139	0.428854	2.0228	-0.0655412	-0.00266921
26.0498	0.439068	2.02554	-0.0655179	-0.00251372
30.3857	0.465724	2.02915	-0.065581	-0.00296608
34.72168	0.505766	2.03534	-0.065292	-0.00281316
39.0576	0.562077	2.03983	-0.06522724	-0.00273256
43.3936	0.579813	2.04252	-0.0651772	-0.00251691
47.7295	0.616489	2.048	-0.0652756	-0.002943479
52.06543	0.710746	2.05385	-0.0650004	-0.00306522
56.4014	0.7376529	2.05568	-0.064913	-0.00255664
60.7373	0.792744	2.06059	-0.06487795	-0.00267199
65.0732	0.910381	2.06697	-0.0646604	-0.00301803
69.40918	0.932534	2.06871	-0.0643737	-0.0027705
73.7451	1.00119	2.07301	-0.0643633	-0.00274519
78.0811	1.1515	2.08049	-0.0640785	-0.00258927
82.417	1.14975	2.08132	-0.0637122	-0.0025157
86.75293	1.24738	2.08685	-0.06382335	-0.00278046
91.0889	1.39814	2.09294	-0.0630461	-0.0024265
95.4248	1.39986	2.09384	-0.0634748	-0.00302826
99.7607	1.51498	2.09921	-0.0630906	-0.00256845
104.097	1.6878	2.10582	-0.062763	-0.002838816
108.433	1.7125	2.10701	-0.0624612	-0.00271443
112.769	1.821923	2.1124	-0.0621189	-0.0026999
117.104	1.998729	2.11833	-0.06190389	-0.00301727
121.44	2.04353	2.12012	-0.0617859	-0.0025335
125.776	2.15255	2.12576	-0.0614989	-0.00275632
130.1123	2.3431	2.13208	-0.0612496	-0.00287327
134.448	2.39701	2.13362	-0.06095811	-0.00256616
138.784	2.5341	2.13863	-0.0607153	-0.00300814
143.12	2.64714	2.14311	-0.06033437	-0.00278727
147.456	2.76974	2.14682	-0.060101	-0.00279302
151.792	2.91202	2.1525	-0.0597148	-0.00233333
156.128	2.9895	2.15548	-0.0597654	-0.00273942
160.464	3.13578	2.15964	-0.0592007	-0.00299347
164.7998	3.33238	2.16625	-0.0588209	-0.00274846
169.136	3.38007	2.16789	-0.0585902	-0.0030803
173.472	3.54461	2.173	-0.05823835	-0.0023288
177.808	3.77069	2.17928	-0.05785	-0.002677663
182.144	3.81111	2.18149	-0.0574966	-0.002357098
186.479	3.97611	2.1853	-0.057261	-0.00273643
190.815	4.133358	2.19161	-0.0572349	-0.00257301
195.151	4.25768	2.1947	-0.0569411	-0.00268914
199.4873	4.42603	2.19986	-0.056306	-0.00264653
203.823	4.52737	2.20288	-0.0560873	-0.00264121
208.159	4.72369	2.20779	-0.0557014	-0.00232304
212.495	4.94349	2.21405	-0.05523698	-0.00279083
216.831	5.00391	2.21571	-0.0549023	-0.00267211
221.167	5.19249	2.22092	-0.0544993	-0.00237359
225.503	5.37815	2.22633	-0.0542978	-0.00261154
229.839	5.52129	2.22867	-0.0539721	-0.00285952
234.1748	5.71368	2.2355	-0.0533534	-0.00270934
238.511	5.83516	2.23767	-0.0529845	-0.00259594
242.847	6.02954	2.241883	-0.05269194	-0.0026106
247.183	6.249052	2.24863	-0.0520015	-0.00241452
251.519	6.380043	2.25145	-0.0517461	-0.00260082
255.854	6.56255	2.25586	-0.0514553	-0.00280501
260.19	6.6946	2.25932	-0.0511014	-0.00237744
264.526	6.92202	2.26409	-0.0508817	-0.00259724
268.8623	7.15085	2.26986	-0.050329	-0.00267972
273.198	7.28213	2.272824	-0.0497041	-0.00257646
277.534	7.50768	2.27753	-0.0494194	-0.00269401
281.87	7.664	2.28197	-0.0490739	-0.00240426
286.206	7.86472	2.28542	-0.0485199	-0.00250842
290.542	8.03847	2.2916	-0.0480923	-0.00255259
294.878	8.20061	2.29402	-0.0478043	-0.00245959
299.214	8.46185	2.29931	-0.0473192	-0.00272632
303.5498	8.70541	2.30514	-0.0466948	-0.002658797
307.886	8.88554	2.30788	-0.0460115	-0.00238261
312.222	9.08865	2.3119	-0.0457226	-0.00262737
316.558	9.18646	2.31401	-0.0454311	-0.00233708
320.894	9.47174	2.32029	-0.0448417	-0.0027341
325.229	9.78494	2.3267	-0.04426777	-0.00249303
329.565	9.89959	2.32973	-0.043908	-0.00258887
333.901	10.08495	2.33423	-0.0432413	-0.00259317
338.2373	10.2929	2.33827	-0.042963	-0.00282116
342.573	10.52	2.34191	-0.0423055	-0.00258853
346.909	10.7526	2.34813	-0.0419317	-0.00235464
351.245	10.9233	2.35021	-0.0414771	-0.00249776
355.581	11.1472	2.35536	-0.0412758	-0.00277033
359.917	11.4062	2.36016	-0.0405536	-0.00278723
364.253	11.5885	2.36419	-0.03988608	-0.00254977
368.589	11.7971	2.36918	-0.039582	-0.00265384
372.9248	12.0553	2.37284	-0.03869354	-0.00247375
377.261	12.3289	2.37617	-0.0380107	-0.00235406
381.597	12.5121	2.38201	-0.0377045	-0.00256781
385.933	12.6816	2.3848	-0.0371024	-0.00305816
390.269	12.8892	2.39085	-0.0365533	-0.00284247
394.604	13.0854	2.39352	-0.03621592	-0.00237856
398.94	13.3217	2.39841	-0.0355809	-0.00259619
403.276	13.5868	2.40385	-0.0350463	-0.00269303
407.6123	13.8158	2.40694	-0.0344973	-0.00280964
411.948	14.0488	2.41199	-0.0338092	-0.00265179
416.284	14.2426	2.41578	-0.0334723	-0.00276278
420.62	14.4795	2.41922	-0.0328469	-0.00301653
424.956	14.7262	2.4261	-0.0322351	-0.00269061
429.292	14.9556	2.42852	-0.0317179	-0.00290317
433.628	15.1567	2.43323	-0.03107468	-0.00286613
437.964	15.3967	2.43811	-0.030454	-0.00292071
442.2998	15.6571	2.4415	-0.0298822	-0.0027676
446.636	15.8899	2.44674	-0.0292293	-0.00257406
450.972	16.1094	2.44994	-0.0285044	-0.00258993
455.308	16.3277	2.45492	-0.0279391	-0.00281638
459.644	16.55479	2.459877	-0.0275955	-0.0025927
463.979	16.8178	2.46404	-0.0266713	-0.00263685
468.315	17.0109	2.4684	-0.0261771	-0.0028081
472.651	17.2521	2.47255	-0.0255935	-0.00279962
476.9873	17.496	2.47662	-0.0249828	-0.0028692
481.323	17.7117	2.48149	-0.0244621	-0.0030127
485.659	17.9647	2.48606	-0.0237289	-0.00285234
489.995	18.1353	2.4901	-0.0231477	-0.00289964
494.331	18.393	2.49423	-0.0225716	-0.00303411
498.667	18.5985	2.49865	-0.0219363	-0.00271106
503.003	18.8378	2.50326	-0.0212491	-0.00237281
507.339	19.0865	2.50716	-0.0203121	-0.00255926
511.6748	19.32777	2.51224	-0.0197722	-0.00274728
516.011	19.5284	2.51579	-0.0187704	-0.00267214
520.347	19.7544	2.52012	-0.01815981	-0.00278003
524.683	20.1084	2.52495	-0.0170504	-0.00267023
529.019	20.2414	2.52888	-0.0164505	-0.00269945
533.354	20.4543	2.53375	-0.0158226	-0.00267891
537.69	20.6845	2.53727	-0.0149477	-0.00272723
542.026	20.8812	2.54176	-0.0139571	-0.00286527
546.3623	21.1418	2.54722	-0.0129151	-0.00234188
550.698	21.348	2.55038	-0.0117669	-0.00228167
555.034	21.5025	2.55572	-0.0112508	-0.00260008
559.37	21.7592	2.559309	-0.0100982	-0.00302544
563.706	21.9143	2.56349	-0.00880314	-0.00257925
568.042	22.11878	2.56849	-0.00762823	-0.00273
572.378	22.3389	2.57265	-0.00640868	-0.00303739
576.714	22.5158	2.57705	-0.00484537	-0.00291579
581.0498	22.6983	2.58174	-0.00336232	-0.00302482
585.386	22.8588	2.58561	-0.00154547	-0.00316076
589.722	23.0573	2.5907	0.000214908	-0.00298051
594.058	23.1284	2.59246	0.00119359	-0.00305441
598.394	23.3118	2.597692	0.00300451	-0.002879922
602.729	23.5351	2.60287	0.00482498	-0.00266301
607.065	23.6618	2.60638	0.006673431	-0.00258441
611.401	23.8459	2.61233	0.008726459	-0.0029076
615.7373	23.9929	2.61571	0.0109156	-0.0031016
620.073	24.1043	2.61972	0.0131011	-0.00286783
624.409	24.2638	2.62495	0.0153125	-0.00262737
628.745	24.3714	2.62896	0.0173431	-0.00291609
633.081	24.4664	2.63336	0.0194327	-0.00307367
637.417	24.6235	2.63709	0.0216561	-0.00282506
641.753	24.7465	2.64155	0.0241713	-0.00266132
646.089	24.8753	2.645895	0.0268516	-0.00277886
650.4248	24.9453	2.65044	0.0292477	-0.00262829
654.761	25.1007	2.65568	0.0320146	-0.00285764
659.097	25.1938	2.65913	0.0344098	-0.00282728
663.433	25.2853	2.66385	0.0374495	-0.0030937
667.769	25.4159	2.66776	0.0409423	-0.00286497
672.104	25.443	2.67191	0.04298415	-0.00269821
676.44	25.5901	2.6773	0.0457836	-0.00259946
680.776	25.6463	2.67992	0.0487071	-0.00284655
685.1123	25.7149	2.6856	0.0518735	-0.00291676
689.448	25.791	2.68916	0.0549395	-0.00265089
693.784	25.8669	2.694037	0.0579175	-0.00282681
698.12	25.9441	2.69834	0.06135406	-0.00262163
702.456	26.0081	2.70198	0.0644479	-0.00267873
706.792	26.0634	2.707016	0.0673634	-0.00272721
711.128	26.1614	2.71076	0.071151	-0.00284369
715.464	26.1549	2.71592	0.0744805	-0.00262693
719.7998	26.2802	2.72005	0.0777504	-0.00248427
724.136	26.3005	2.72391	0.0812273	-0.00256326
728.472	26.3443	2.728853	0.0851838	-0.00267376
732.808	26.4114	2.73263	0.0885748	-0.0026535
737.144	26.4069	2.737339	0.0924596	-0.00230909
741.479	26.49202	2.74171	0.0961138	-0.00272623
745.815	26.5073	2.74521	0.09971866	-0.003051013
750.151	26.5333	2.7509	0.103796	-0.00239608
754.4873	26.5992	2.75454	0.107703	-0.00237003
758.823	26.5885	2.75902	0.112257	-0.00261488
763.159	26.5916	2.76326	0.115926	-0.00289933
767.495	26.6798	2.768126	0.119615	-0.00268328
771.831	26.6149	2.77183	0.123323	-0.00298675
776.167	26.7207	2.77504	0.126605	-0.00278315
780.503	26.4193	2.77635	0.136705	-0.0028762
784.839	26.5743	2.785264	0.138306	-0.002930542
789.1748	26.6272	2.78903	0.140075	-0.00237192
793.511	26.7028	2.79422	0.14338	-0.0026348
797.847	26.7567	2.79724	0.147227	-0.00311514
802.183	26.6961	2.80174	0.151379	-0.00284632
806.519	26.7458	2.80722	0.155771	-0.00236652
810.854	26.7179	2.810992	0.159704	-0.00270912
815.19	26.7102	2.81566	0.164843	-0.00316028
819.526	26.7368	2.81926	0.168905	-0.002743548
823.8623	26.6776	2.82401	0.173253	-0.00267403
828.198	26.7176	2.82834	0.17802	-0.00286459
832.534	26.3687	2.83379	0.194216	-0.00279242
836.87	26.2365	2.837723	0.195027	-0.00288567
841.206	25.9117	2.84358	0.204199	-0.0026709
845.542	26.2059	2.83555	0.208801	-0.00294919
849.878	26.01652	2.85051	0.209721	-0.00292458
854.214	26.1866	2.85435	0.210635	-0.003072259
858.5498	25.9757	2.86223	0.221656	-0.00283339
862.886	26.9653	2.88087	0.223715	-0.00316638
867.222	26.1385	2.86387	0.232934	-0.00276024
871.558	26.3528	2.87845	0.236274	-0.00281859
875.894	26.1916	2.87504	0.239259	-0.00288139
880.229	26.0237	2.8815	0.2420807	-0.0029361
884.565	26.0664	2.88473	0.243525	-0.00294758
888.901	26.0563	2.88893	0.245385	-0.00297027
893.2373	26.1228	2.89248	0.253907	-0.002930772
897.573	25.7251	2.89792	0.2613638	-0.00270593
901.909	24.8299	2.90222	0.282285	-0.00293255
906.245	13.9283	2.90676	0.427012	-0.00286409
910.581	12.1231	2.90842	0.462189	-0.0023876
914.917	9.53377	2.9157	0.508502	-0.00308992
919.253	6.270936	2.91885	0.55857	-0.002917
923.589	-0.00815332	2.92506	0.472183	-0.00290935
927.9248	-0.0197585	2.92982	1.00422	-0.00309243
928.643	-0.0187237	2.92814	1.07722	-0.00270192