Folder: Tensile_force_data/shares/flx_lsms_hydrogen/EXPERIMENTAL_DATA/LABO_SOETE/WP1_TENSILE/H2_HC1/MTS/LYARR13

Note: README.md
# Tensile_force_data

File: specimen.dat
MTS793|MPT|ENU|1|2|.|/|:|1|0|0|A

Data Acquisition						Time:	15.0195	s	1/27/2022 10:04:05 AM
Time	ESH B Force	ESH B Displacement	Analog In 2	Analog In 1
s	kN	mm	V	V
0.0332031	0.382457	10.0012	-0.0239703	0.00330779
3.90039	0.440705	10.0057	-0.0236966	0.003211522
7.76758	0.561102	10.0188	-0.0230664	0.00340354
11.6348	0.589453	10.02352	-0.02314312	0.0031893
15.502	0.72221	10.0355	-0.0226021	0.003050837
19.3691	0.784388	10.0414	-0.0225386	0.00328311
23.2363	0.95111	10.0531	-0.0219994	0.00316407
27.1035	1.016077	10.0586	-0.0217523	0.00296572
30.9707	1.24454	10.0716	-0.020764	0.00340432
34.8379	1.30999	10.0756	-0.0207918	0.00321301
38.7051	1.58887	10.08843	-0.0195614	0.0030563
42.5723	1.65038	10.0929	-0.0191981	0.00330984
46.4395	1.95307	10.1055	-0.0183048	0.003284818
50.3066	2.03657	10.1109	-0.018155	0.00292847
54.1738	2.35768	10.1244	-0.0168828	0.00320165
58.041	2.49055	10.1298	-0.0163133	0.00285166
61.9082	2.77619	10.1414	-0.0156405	0.00328145
65.7754	2.93851	10.1478	-0.0151322	0.00307341
69.6426	3.24797	10.1586	-0.014096	0.00317828
73.5098	3.44766	10.1655	-0.0135447	0.00321122
77.377	3.72267	10.1755	-0.0126703	0.00284414
81.2441	3.95007	10.1825	-0.0120166	0.00312486
85.1113	4.25125	10.1926	-0.0111554	0.00286691
88.9785	4.5077	10.2007	-0.0103565	0.00282968
92.8457	4.710289	10.2086	-0.00954563	0.003117813
96.7129	5.096107	10.2179	-0.00870213	0.00287323
100.58	5.31801	10.2258	-0.00803503	0.00312996
104.447	5.69438	10.2362	-0.006938125	0.00270048
108.314	5.89695	10.2414	-0.00631888	0.00303624
112.182	6.333014	10.2522	-0.00481175	0.00269882
116.049	6.58227	10.2595	-0.00417215	0.00287515
119.916	7.05791	10.27145	-0.00268147	0.00299558
123.7832	7.25566	10.2759	-0.00207112	0.0027694
127.65	7.83482	10.2884	-0.000207943	0.00309978
131.518	8.003108	10.2932	0.000335082	0.00300181
135.385	8.5626	10.3072	0.00170791	0.00256124
139.252	8.7696	10.3116	0.00269974	0.00292036
143.119	9.31539	10.3248	0.00410942	0.00228577
146.986	9.62917	10.3303	0.00549757	0.0026239
150.854	10.0833	10.3411	0.00662266	0.00237953
154.7207	10.4322	10.3476	0.00818663	0.00255659
158.588	10.9278	10.3583	0.00944276	0.00251627
162.455	11.2598	10.36558	0.0109362	0.00230699
166.322	11.6913	10.3744	0.0124136	0.00245322
170.189	12.0911	10.3827	0.01386267	0.00224468
174.057	12.5277	10.3921	0.0152088	0.00255083
177.924	12.9334	10.4004	0.0169878	0.00236413
181.791	13.2709	10.4082	0.0182441	0.00257059
185.6582	13.7565	10.418	0.0200387	0.00222047
189.525	14.0479	10.424	0.0212909	0.00245291
193.393	14.9696	10.4308	0.0245826	0.00215955
197.26	14.8699	10.44171	0.02553191	0.00250522
201.127	15.7862	10.454	0.028502	0.00238287
204.994	15.7328	10.4593	0.0291525	0.00226243
208.861	16.3803	10.4721	0.0312686	0.0023755
212.729	16.6127	10.4768	0.033045	0.00210225
216.5957	17.197	10.4891	0.0356576	0.00253875
220.463	17.5038	10.49556	0.0380053	0.0022973
224.33	17.9601	10.5062	0.04076777	0.0020521
228.197	18.2465	10.5133	0.0439011	0.00233423
232.064	18.61301	10.5234	0.0468633	0.00239324
235.932	18.8522	10.5312	0.0514205	0.00221928
239.799	19.0956	10.54	0.0550529	0.00215361
243.666	19.3111	10.5482	0.0608937	0.00230427
247.5332	19.44507	10.5567	0.0654876	0.0023412
251.4	19.6228	10.5659	0.0724785	0.00219112
255.268	19.6723	10.5722	0.0776129	0.00197191
259.135	19.9463	10.5841	0.0852689	0.00218335
263.002	19.89917	10.58994	0.0911249	0.00244024
266.869	20.2213	10.6025	0.0987309	0.00225007
270.736	20.1193	10.60707	0.1047632	0.00196691
274.604	20.44055	10.6211	0.113998	0.00199845
278.4707	20.3917	10.6272	0.120946	0.00228201
282.338	20.5891	10.6378	0.127394	0.00237274
286.205	20.52371	10.6429	0.134334	0.00218574
290.072	20.7318	10.654	0.141712	0.00198583
293.939	20.6759	10.6612	0.149857	0.002081539
297.807	20.7979	10.6705	0.157327	0.00190269
301.674	20.7988	10.6785	0.165947	0.00204009
305.541	20.8048	10.686	0.172366	0.00230435
309.4082	20.9111	10.697	0.181909	0.00230257
313.275	20.827	10.703	0.188813	0.00196306
317.143	20.9824	10.7144	0.197966	0.001874
321.01	20.8687	10.7204	0.204761	0.00208104
324.877	21.08021	10.7327	0.21418	0.00219362
328.744	20.916	10.7376	0.221455	0.00215222
332.611	21.1635	10.7505	0.230406	0.002208712
336.479	20.9815	10.75581	0.238511	0.00210913
340.3457	21.1595	10.7675	0.247304	0.00188453
344.213	21.0493	10.7741	0.255009	0.00185057
348.08	21.2838	10.7854	0.263842	0.00197851
351.947	21.0558	10.79175	0.27321	0.00187557
355.814	21.0994	10.8012	0.281483	0.00193406
359.682	21.09757	10.8097	0.289804	0.00204186
363.549	21.0843	10.8166	0.297441	0.00196193
367.416	21.1216	10.82697	0.307549	0.0020206
371.2832	20.99485	10.833	0.315554	0.00201018
375.15	21.1445	10.8453	0.324945	0.001856117
379.018	20.98115	10.8504	0.33284	0.001754813
382.885	21.2032	10.8633	0.342408	0.00187055
386.752	20.9753	10.8686	0.350577	0.00170656
390.619	21.19	10.8812	0.3598001	0.00171118
394.486	20.9783	10.8867	0.368954	0.001778478
398.354	21.1782	10.8983	0.377214	0.00169754
402.2207	20.9979	10.9044	0.386631	0.00171747
406.088	21.1446	10.9157	0.39418	0.00177508
409.955	20.9534	10.9218	0.404529	0.0017445
413.822	21.0577	10.9321	0.412636	0.00196352
417.689	20.9409	10.92431	0.427233	0.002029391
421.557	20.8335	10.9533	0.437664	0.00186752
425.424	20.8274	10.9572	0.441239	0.00165972
429.291	20.8542	10.9642	0.447952	0.00194011
433.1582	20.9129	10.975	0.457945	0.00155906
437.025	20.7755	10.9809	0.465944	0.00168674
440.893	20.7981	10.9932	0.477851	0.00166509
444.76	20.7209	10.9981	0.484365	0.00155539
448.627	20.9277	11.0117	0.493681	0.00158782
452.494	20.6942	11.0169	0.502594	0.0015687
456.361	20.8983	11.0294	0.511623	0.00137016
460.229	20.6876	11.0341	0.520413	0.00130105
464.0957	20.8434	11.0456	0.529089	0.0014087
467.963	20.6457	11.052	0.538466	0.00121292
471.83	20.77548	11.0627	0.547398	0.00121136
475.697	20.6061	11.0696	0.556598	0.00133229
479.564	20.7009	11.0801	0.564423	0.001243145
483.432	20.55863	11.0879	0.57484	0.00127642
487.299	20.5782	11.0952	0.582245	0.00142749
491.166	20.542	11.1062	0.593396	0.0013947
495.0332	20.40625	11.112	0.601114	0.00157712
498.9	20.4671	11.1225	0.611204	0.001519539
502.768	20.3645	11.1298	0.619226	0.001156195
506.635	20.4502	11.1404	0.629026	0.00128653
510.502	20.2857	11.1464	0.637046	0.001261207
514.369	20.432	11.1592	0.64785	0.0015297
518.236	20.2271	11.164	0.65636	0.00149075
522.104	20.4006	11.1764	0.665758	0.00120168
525.9707	20.167	11.1818	0.674593	0.00117145
529.838	20.3633	11.1948	0.684074	0.00101476
533.705	20.1147	11.199	0.692802	0.00104744
537.572	20.2969	11.2117	0.701993	0.0013105
541.439	20.0795	11.21619	0.710802	0.0013314
545.307	20.2438	11.23	0.720938	0.00149527
549.174	19.9499	11.23261	0.745957	0.00140714
553.041	19.7792	11.2507	0.749899	0.0010455
556.9082	19.7745	11.2521	0.751905	0.00119001
560.775	20.1114	11.2602	0.764273	0.0012472
564.643	19.7725	11.2697	0.77069	0.00133983
568.51	20.0294	11.2814	0.774857	0.000985697
572.377	19.7771	11.2876	0.789493	0.00101633
576.244	19.9177	11.2986	0.794497	0.00134402
580.111	19.7809	11.30384	0.80906	0.00119788
583.979	20.1437	11.3238	0.813622	0.00110737
587.8457	19.6851	11.3247	0.82711	0.000952858
591.713	19.7867	11.3349	0.831583	0.00128952
595.58	19.6553	11.3394	0.83922	0.00134391
599.447	19.7586	11.35148	0.847986	0.000968274
603.314	19.5727	11.356	0.857732	0.000981351
607.182	19.6713	11.367	0.866611	0.00103737
611.049	19.483	11.3741	0.875857	0.00133387
614.916	19.5968	11.3851	0.884927	0.00106899
618.7832	19.39813	11.3913	0.894033	0.000860838
622.65	19.5019	11.4029	0.9039619	0.00120362
626.518	19.3158	11.4082	0.912732	0.00106065
630.385	19.4202	11.4206	0.921763	0.000941957
634.252	19.2246	11.4254	0.931246	0.00078077
638.119	19.36	11.4373	0.940452	0.000996879
641.986	19.2267	11.4441	0.950206	0.000884644
645.854	19.2666	11.4553	0.959128	0.0007218431
649.7207	19.0393	11.4597	0.967966	0.00101854
653.588	19.1846	11.4723	0.97739	0.000660738
657.455	18.9593	11.4774	0.986559	0.000449571
661.322	19.0781	11.48932	0.995741	0.000805132
665.189	18.8854	11.4945	1.00475	0.0004746682
669.057	18.9789	11.5059	1.01451	0.000799353
672.924	18.7866	11.5117	1.02341	0.00072468
676.791	18.8766	11.52318	1.0332	0.00065423
680.6582	18.7235	11.5295	1.04273	0.0007553242
684.525	18.7896	11.5405	1.0515	0.000601144
688.393	18.6708	11.5481	1.06014	0.000550431
692.26	18.7112	11.5575	1.0701	0.000380994
696.127	18.6678	11.5661	1.078894	0.0003081586
699.994	18.6393	11.575	1.08839	0.000435269
703.861	18.5948	11.5839	1.09719	0.000403087
707.729	18.5621	11.5927	1.10735	0.00072549
711.5957	18.523	11.60112	1.11649	0.000594456
715.463	18.4662	11.6097	1.12588	0.000256774
719.33	18.4439	11.6194	1.13518	0.00059998
723.197	18.2139	11.6259	1.14587	0.000554664
727.064	18.3481	11.637	1.15375	0.000392174
730.932	18.1543	11.64333	1.16291	0.000351493
734.799	18.2335	11.6534	1.173	0.000617243
738.666	18.08396	11.6606	1.18158	0.000602793
742.5332	18.1076	11.6703	1.19165	0.000474341
746.4	17.967	11.6775	1.20009	0.00045993
750.268	18.0607	11.6897	1.21019	0.000206842
754.135	17.9294	11.6961	1.21843	0.000270998
758.002	17.96043	11.7058	1.228446	0.000546697
761.869	17.9414	11.7154	1.23735	0.000485789
765.736	17.8479	11.7231	1.24798	0.000566051
769.604	17.8332	11.7331	1.25711	0.000438261
773.4707	17.6767	11.7404	1.26656	0.000193812
777.338	17.7334	11.7497	1.27592	0.000372229
781.205	17.51428	11.7569	1.28549	0.00037852
785.072	17.5602	11.7672	1.2953	0.000626141
788.939	17.3619	11.773	1.30381	0.000523767
792.807	17.3861	11.7829	1.31411	0.0002766
796.674	17.2434	11.7907	1.322751	0.000261519
800.541	17.277	11.8012	1.333704	0.000175928
804.4082	17.2252	11.81039	1.34157	0.000400279
808.275	17.09931	11.818	1.35331	0.000502598
812.143	17.1321	11.829	1.36241	0.00030796
816.01	16.8862	11.8357	1.37356	0.000196859
819.877	16.8698	11.8467	1.38368	0.000113764
823.744	16.5015	11.8522	1.39429	0.000443482
827.611	14.3738	11.8639	1.43379	0.000403817
831.479	13.6558	11.8691	1.450176	0.000193941
835.3457	13.1156	11.8801	1.46914	0.000175202
839.213	12.4646	11.8865	1.48553	0.000110108
843.08	11.7931	11.8975	1.50726	0.00046415
846.947	11.1618	11.9066	1.52416	0.000405901
850.814	9.69236	11.91443	1.55551	0.000148439
854.682	7.71712	11.9249	1.59299	0.000181
858.549	0.55771	11.9292	1.79966	0.000279803
862.416	-0.02728183	11.94136	1.09908	-4.332653e-05
863.881	-0.0154735	11.9404	0.754076	0.000275895